Data from VictorAnthra_Absorbance__9__00029.txt Node

Date: Thu Oct 10 15:49:17 EDT 2024
User: earladmin
Spectrometer: FLCH01037
Trigger mode: 0
Integration Time (sec): 1.000000E-1
Scans to average: 5
Electric dark correction enabled: true
Nonlinearity correction enabled: false
Boxcar width: 2
XAxis mode: Wavelengths
Number of Pixels in Spectrum: 2048
>>>>>Begin Spectral Data<<<<<
178.246	0.12
178.631	0.38
179.016	0.54
179.401	0.29
179.785	0.12
180.17	-0.59
180.554	-0
180.939	-0.03
181.323	0.1
181.708	-0.05
182.092	-0
182.477	-0.16
182.861	0.8
183.245	-0.33
183.63	0.12
184.014	-0
184.398	-0.24
184.782	-0.08
185.167	0.05
185.551	-0.26
185.935	0.31
186.319	-0
186.703	0.06
187.087	0.23
187.471	-0
187.855	-0.46
188.238	-0.53
188.622	-0
189.006	0.59
189.39	-0.09
189.774	0.13
190.157	-0
190.541	-0.27
190.925	0.11
191.308	0.25
191.692	0.44
192.075	0.88
192.459	-0.88
192.842	1.58
193.226	-0
193.609	0.24
193.992	0.17
194.376	0.08
194.759	-0
195.142	0.15
195.525	0.3
195.909	0.87
196.292	0.26
196.675	-0
197.058	0.06
197.441	-0
197.824	0.1
198.207	-0
198.59	-0.1
198.973	0.07
199.356	0.21
199.738	0.26
200.121	0.23
200.504	0.52
200.887	-0
201.269	0.11
201.652	-0
202.035	0.03
202.417	-0
202.8	-0.44
203.182	-0
203.565	0.42
203.947	-0
204.329	0.4
204.712	-0.04
205.094	-0
205.476	0.4
205.859	0.01
206.241	-0
206.623	-0
207.005	-0
207.387	0.25
207.769	-0.4
208.151	-0
208.533	-0
208.915	0.04
209.297	0.01
209.679	0.47
210.061	0.99
210.443	-0
210.825	-0
211.206	-0.49
211.588	-1.08
211.97	-0
212.351	0.46
212.733	0.69
213.115	0.96
213.496	0.18
213.878	0.42
214.259	-0.22
214.641	0.56
215.022	-0
215.403	0.9
215.785	-0
216.166	-0.78
216.547	-0
216.928	-0
217.31	0.89
217.691	0.99
218.072	-0.23
218.453	-0
218.834	-0
219.215	-0.07
219.596	-0.03
219.977	0.24
220.358	-0.21
220.739	0.53
221.119	-0.02
221.5	-0
221.881	0.39
222.262	0.4
222.642	1.01
223.023	-0
223.403	-0.34
223.784	0.2
224.165	0.39
224.545	-0.17
224.926	-0
225.306	-0.11
225.686	0.06
226.067	-0.18
226.447	0.5
226.827	0.59
227.207	0.43
227.588	-0
227.968	-0
228.348	0.96
228.728	0.6
229.108	0.12
229.488	1.41
229.868	-1.05
230.248	1.33
230.628	0.51
231.008	-0
231.388	-0
231.767	0.46
232.147	-0.23
232.527	0.45
232.907	0.25
233.286	0.34
233.666	-0
234.046	-0
234.425	-0
234.805	0.29
235.184	0.84
235.564	0.17
235.943	0.2
236.322	0.25
236.702	0.08
237.081	0.26
237.46	-0
237.839	0.01
238.219	0.78
238.598	0.39
238.977	0.44
239.356	2.47
239.735	0.13
240.114	-0
240.493	0.24
240.872	1.18
241.251	0.53
241.629	0.53
242.008	0.77
242.387	0.53
242.766	0.43
243.145	-0.08
243.523	0.22
243.902	0.33
244.28	0.77
244.659	-0
245.037	0.54
245.416	-0
245.794	0.97
246.173	-0
246.551	0.39
246.93	0.35
247.308	0.62
247.686	1.1
248.064	0.8
248.442	-0
248.821	-0
249.199	1.7
249.577	0.8
249.955	0.56
250.333	0.47
250.711	-0
251.089	0.57
251.467	1.43
251.844	0.53
252.222	0.35
252.6	0.73
252.978	-0
253.356	0.7
253.733	-0
254.111	0.92
254.488	0.63
254.866	0.82
255.243	1.15
255.621	1.36
255.998	0.58
256.376	1.35
256.753	1.49
257.13	1.07
257.508	0.5
257.885	0.88
258.262	0.34
258.639	0.23
259.017	0.12
259.394	-0.01
259.771	0.04
260.148	-0.1
260.525	-0.15
260.902	-0.25
261.279	-0.26
261.656	-0.25
262.032	-0.17
262.409	-0.3
262.786	-0.33
263.163	-0.29
263.539	-0.27
263.916	-0.26
264.293	-0.32
264.669	-0.3
265.046	-0.3
265.422	-0.33
265.799	-0.32
266.175	-0.35
266.552	-0.29
266.928	-0.28
267.304	-0.28
267.681	-0.25
268.057	-0.32
268.433	-0.29
268.809	-0.25
269.185	-0.25
269.561	-0.23
269.937	-0.24
270.313	-0.2
270.689	-0.22
271.065	-0.23
271.441	-0.22
271.817	-0.24
272.193	-0.18
272.569	-0.22
272.945	-0.19
273.32	-0.16
273.696	-0.16
274.072	-0.14
274.447	-0.15
274.823	-0.15
275.198	-0.13
275.574	-0.14
275.949	-0.1
276.325	-0.09
276.7	-0.1
277.075	-0.07
277.451	-0.07
277.826	-0.07
278.201	-0.05
278.576	-0.04
278.951	-0.05
279.326	-0.05
279.702	-0.02
280.077	0
280.452	-0.01
280.827	-0.01
281.201	0
281.576	0.01
281.951	0.02
282.326	0.03
282.701	0.01
283.075	0.06
283.45	0.05
283.825	0.05
284.199	0.07
284.574	0.06
284.949	0.05
285.323	0.07
285.697	0.08
286.072	0.1
286.446	0.11
286.821	0.11
287.195	0.14
287.569	0.14
287.943	0.12
288.318	0.13
288.692	0.14
289.066	0.17
289.44	0.17
289.814	0.17
290.188	0.17
290.562	0.18
290.936	0.18
291.31	0.23
291.684	0.2
292.057	0.24
292.431	0.21
292.805	0.23
293.179	0.24
293.552	0.23
293.926	0.25
294.299	0.25
294.673	0.24
295.046	0.24
295.42	0.28
295.793	0.26
296.167	0.28
296.54	0.26
296.913	0.28
297.287	0.27
297.66	0.3
298.033	0.29
298.406	0.3
298.779	0.31
299.152	0.3
299.525	0.31
299.898	0.33
300.271	0.32
300.644	0.31
301.017	0.34
301.39	0.35
301.763	0.33
302.136	0.35
302.508	0.36
302.881	0.38
303.254	0.38
303.626	0.39
303.999	0.42
304.371	0.42
304.744	0.42
305.116	0.43
305.489	0.44
305.861	0.46
306.233	0.47
306.606	0.49
306.978	0.49
307.35	0.48
307.722	0.48
308.095	0.54
308.467	0.51
308.839	0.5
309.211	0.51
309.583	0.53
309.955	0.49
310.327	0.53
310.698	0.53
311.07	0.49
311.442	0.53
311.814	0.49
312.185	0.5
312.557	0.54
312.929	0.55
313.3	0.5
313.672	0.55
314.043	0.55
314.415	0.56
314.786	0.55
315.158	0.58
315.529	0.59
315.9	0.59
316.272	0.63
316.643	0.63
317.014	0.63
317.385	0.66
317.756	0.65
318.127	0.66
318.499	0.67
318.87	0.73
319.24	0.75
319.611	0.82
319.982	0.84
320.353	0.88
320.724	0.85
321.095	0.84
321.465	0.88
321.836	0.84
322.207	0.85
322.577	0.89
322.948	0.93
323.318	0.91
323.689	0.87
324.059	0.82
324.43	0.8
324.8	0.85
325.171	0.81
325.541	0.85
325.911	0.89
326.281	0.75
326.651	0.88
327.022	0.77
327.392	0.82
327.762	0.78
328.132	0.72
328.502	0.79
328.872	0.78
329.242	0.78
329.611	0.8
329.981	0.82
330.351	0.86
330.721	0.86
331.09	0.9
331.46	0.88
331.83	0.91
332.199	0.98
332.569	1.04
332.938	1.01
333.308	1.04
333.677	1.13
334.047	0.98
334.416	1.1
334.785	1.15
335.154	1.08
335.524	1.23
335.893	1.38
336.262	1.39
336.631	1.37
337	1.23
337.369	2.32
337.738	1.66
338.107	1.53
338.476	1.57
338.845	1.41
339.214	1.52
339.582	1.81
339.951	1.44
340.32	1.16
340.689	1.38
341.057	1.2
341.426	1.05
341.794	1.12
342.163	1.15
342.531	1
342.9	0.98
343.268	1.08
343.636	0.95
344.005	0.93
344.373	0.96
344.741	0.97
345.109	0.94
345.477	0.93
345.845	0.91
346.214	1.01
346.582	0.93
346.95	0.96
347.317	0.93
347.685	1.01
348.053	1.02
348.421	1.1
348.789	1.06
349.156	1.17
349.524	1.15
349.892	1.22
350.259	1.43
350.627	1.52
350.995	1.22
351.362	1.37
351.729	1.48
352.097	1.55
352.464	1.35
352.832	1.92
353.199	2.01
353.566	1.35
353.933	1.94
354.3	1.59
354.668	1.96
355.035	1.73
355.402	1.75
355.769	2.41
356.136	1.72
356.503	2.82
356.869	2.22
357.236	2.09
357.603	2.03
357.97	1.85
358.337	1.63
358.703	1.35
359.07	1.46
359.436	1.36
359.803	1.05
360.17	1.03
360.536	1.03
360.902	0.92
361.269	0.91
361.635	0.89
362.001	0.84
362.368	0.88
362.734	0.82
363.1	0.76
363.466	0.75
363.832	0.75
364.198	0.72
364.564	0.74
364.93	0.73
365.296	0.73
365.662	0.78
366.028	0.73
366.394	0.77
366.76	0.77
367.125	0.86
367.491	0.87
367.857	0.88
368.222	0.95
368.588	1.02
368.953	0.97
369.319	1
369.684	1.07
370.05	1.12
370.415	1.07
370.781	1.27
371.146	1.28
371.511	1.35
371.876	1.21
372.241	1.37
372.607	1.39
372.972	1.52
373.337	1.4
373.702	1.38
374.067	1.58
374.431	-0
374.796	1.67
375.161	1.67
375.526	1.5
375.891	1.48
376.255	1.73
376.62	1.6
376.985	1.35
377.349	1.28
377.714	1.09
378.078	1.06
378.443	0.92
378.807	0.82
379.172	0.75
379.536	0.69
379.9	0.65
380.264	0.58
380.629	0.59
380.993	0.56
381.357	0.5
381.721	0.47
382.085	0.47
382.449	0.45
382.813	0.41
383.177	0.38
383.541	0.37
383.905	0.36
384.268	0.37
384.632	0.36
384.996	0.35
385.359	0.35
385.723	0.33
386.087	0.32
386.45	0.32
386.814	0.32
387.177	0.31
387.541	0.32
387.904	0.31
388.267	0.3
388.631	0.31
388.994	0.32
389.357	0.31
389.72	0.31
390.083	0.32
390.446	0.32
390.809	0.31
391.172	0.3
391.535	0.33
391.898	0.32
392.261	0.3
392.624	0.29
392.987	0.31
393.35	0.32
393.712	0.3
394.075	0.31
394.437	0.31
394.8	0.31
395.163	0.34
395.525	0.33
395.888	0.32
396.25	0.32
396.612	0.3
396.975	0.31
397.337	0.31
397.699	0.32
398.061	0.29
398.424	0.32
398.786	0.3
399.148	0.31
399.51	0.3
399.872	0.31
400.234	0.29
400.596	0.29
400.957	0.3
401.319	0.31
401.681	0.33
402.043	0.3
402.404	0.31
402.766	0.32
403.128	0.32
403.489	0.33
403.851	0.32
404.212	0.3
404.574	0.32
404.935	0.32
405.296	0.31
405.658	0.33
406.019	0.32
406.38	0.31
406.741	0.32
407.103	0.31
407.464	0.32
407.825	0.32
408.186	0.32
408.547	0.33
408.908	0.31
409.268	0.3
409.629	0.31
409.99	0.3
410.351	0.32
410.712	0.34
411.072	0.34
411.433	0.32
411.793	0.33
412.154	0.32
412.515	0.35
412.875	0.33
413.235	0.34
413.596	0.35
413.956	0.33
414.316	0.35
414.677	0.35
415.037	0.33
415.397	0.32
415.757	0.31
416.117	0.32
416.477	0.32
416.837	0.34
417.197	0.34
417.557	0.35
417.917	0.35
418.277	0.34
418.637	0.35
418.996	0.34
419.356	0.35
419.716	0.35
420.075	0.34
420.435	0.33
420.794	0.31
421.154	0.33
421.513	0.32
421.873	0.33
422.232	0.35
422.591	0.33
422.95	0.34
423.31	0.33
423.669	0.33
424.028	0.37
424.387	0.36
424.746	0.34
425.105	0.36
425.464	0.36
425.823	0.34
426.182	0.36
426.541	0.36
426.899	0.36
427.258	0.35
427.617	0.36
427.976	0.38
428.334	0.35
428.693	0.36
429.051	0.35
429.41	0.35
429.768	0.32
430.127	0.34
430.485	0.33
430.843	0.34
431.202	0.34
431.56	0.36
431.918	0.37
432.276	0.36
432.634	0.34
432.992	0.37
433.35	0.35
433.708	0.36
434.066	0.35
434.424	0.34
434.782	0.33
435.14	0.36
435.497	0.37
435.855	0.36
436.213	0.35
436.57	0.35
436.928	0.35
437.285	0.35
437.643	0.36
438	0.32
438.358	0.37
438.715	0.37
439.072	0.35
439.43	0.35
439.787	0.38
440.144	0.36
440.501	0.38
440.858	0.35
441.215	0.37
441.572	0.37
441.929	0.37
442.286	0.35
442.643	0.37
443	0.36
443.357	0.37
443.714	0.36
444.07	0.39
444.427	0.36
444.783	0.38
445.14	0.38
445.497	0.38
445.853	0.35
446.209	0.36
446.566	0.36
446.922	0.36
447.279	0.35
447.635	0.37
447.991	0.35
448.347	0.36
448.703	0.34
449.059	0.35
449.415	0.36
449.771	0.35
450.127	0.34
450.483	0.37
450.839	0.37
451.195	0.37
451.551	0.36
451.906	0.38
452.262	0.38
452.618	0.37
452.973	0.38
453.329	0.37
453.685	0.36
454.04	0.38
454.395	0.37
454.751	0.37
455.106	0.36
455.461	0.35
455.817	0.36
456.172	0.34
456.527	0.37
456.882	0.37
457.237	0.37
457.592	0.35
457.947	0.37
458.302	0.41
458.657	0.4
459.012	0.37
459.367	0.37
459.721	0.37
460.076	0.36
460.431	0.37
460.785	0.37
461.14	0.38
461.495	0.38
461.849	0.37
462.204	0.37
462.558	0.37
462.912	0.4
463.267	0.39
463.621	0.39
463.975	0.36
464.329	0.37
464.683	0.36
465.038	0.37
465.392	0.36
465.746	0.37
466.1	0.37
466.454	0.37
466.807	0.39
467.161	0.36
467.515	0.36
467.869	0.39
468.222	0.36
468.576	0.38
468.93	0.39
469.283	0.38
469.637	0.39
469.99	0.4
470.344	0.36
470.697	0.38
471.05	0.4
471.404	0.37
471.757	0.38
472.11	0.36
472.463	0.39
472.816	0.4
473.169	0.37
473.522	0.39
473.875	0.38
474.228	0.37
474.581	0.38
474.934	0.39
475.287	0.4
475.64	0.38
475.992	0.39
476.345	0.37
476.698	0.38
477.05	0.38
477.403	0.38
477.755	0.38
478.108	0.39
478.46	0.36
478.812	0.39
479.165	0.39
479.517	0.38
479.869	0.39
480.221	0.37
480.574	0.38
480.926	0.39
481.278	0.38
481.63	0.38
481.982	0.39
482.333	0.37
482.685	0.39
483.037	0.4
483.389	0.41
483.741	0.38
484.092	0.37
484.444	0.4
484.796	0.4
485.147	0.38
485.499	0.38
485.85	0.36
486.201	0.39
486.553	0.38
486.904	0.36
487.255	0.37
487.607	0.38
487.958	0.38
488.309	0.38
488.66	0.38
489.011	0.38
489.362	0.38
489.713	0.37
490.064	0.38
490.415	0.36
490.765	0.38
491.116	0.39
491.467	0.39
491.818	0.38
492.168	0.41
492.519	0.37
492.869	0.39
493.22	0.4
493.57	0.4
493.921	0.4
494.271	0.4
494.621	0.38
494.972	0.39
495.322	0.4
495.672	0.38
496.022	0.37
496.372	0.38
496.722	0.37
497.072	0.39
497.422	0.39
497.772	0.36
498.122	0.37
498.472	0.38
498.822	0.39
499.171	0.39
499.521	0.38
499.871	0.39
500.22	0.38
500.57	0.4
500.919	0.4
501.269	0.39
501.618	0.39
501.967	0.37
502.317	0.38
502.666	0.37
503.015	0.38
503.364	0.38
503.713	0.37
504.063	0.38
504.412	0.37
504.761	0.37
505.11	0.39
505.458	0.38
505.807	0.38
506.156	0.38
506.505	0.38
506.854	0.38
507.202	0.37
507.551	0.38
507.899	0.39
508.248	0.39
508.596	0.38
508.945	0.39
509.293	0.37
509.642	0.38
509.99	0.38
510.338	0.4
510.686	0.39
511.034	0.37
511.383	0.38
511.731	0.37
512.079	0.38
512.427	0.38
512.775	0.38
513.122	0.37
513.47	0.39
513.818	0.43
514.166	0.42
514.513	0.42
514.861	0.4
515.209	0.37
515.556	0.39
515.904	0.38
516.251	0.39
516.599	0.37
516.946	0.36
517.293	0.54
517.641	0.39
517.988	0.35
518.335	0.38
518.682	0.41
519.029	0.39
519.376	0.38
519.723	0.4
520.07	0.4
520.417	0.38
520.764	0.38
521.111	0.39
521.458	0.39
521.804	0.38
522.151	0.4
522.498	0.39
522.844	0.39
523.191	0.39
523.537	0.4
523.884	0.38
524.23	0.38
524.576	0.39
524.923	0.4
525.269	0.37
525.615	0.4
525.961	0.4
526.307	0.41
526.653	0.41
526.999	0.38
527.345	0.4
527.691	0.39
528.037	0.4
528.383	0.39
528.729	0.38
529.075	0.4
529.42	0.4
529.766	0.38
530.112	0.4
530.457	0.41
530.803	0.4
531.148	0.41
531.493	0.4
531.839	0.42
532.184	0.4
532.529	0.43
532.875	0.39
533.22	0.4
533.565	0.39
533.91	0.38
534.255	0.39
534.6	0.38
534.945	0.4
535.29	0.38
535.635	0.42
535.98	0.41
536.324	0.42
536.669	0.4
537.014	0.41
537.358	0.4
537.703	0.4
538.047	0.39
538.392	0.38
538.736	0.39
539.081	0.39
539.425	0.38
539.769	0.41
540.113	0.41
540.458	0.4
540.802	0.4
541.146	0.42
541.49	0.39
541.834	0.4
542.178	0.39
542.522	0.39
542.866	0.42
543.209	0.38
543.553	0.39
543.897	0.4
544.241	0.37
544.584	0.4
544.928	0.4
545.271	0.42
545.615	0.41
545.958	0.37
546.302	0.38
546.645	0.39
546.988	0.37
547.331	0.38
547.675	0.39
548.018	0.39
548.361	0.39
548.704	0.39
549.047	0.4
549.39	0.43
549.733	0.41
550.076	0.41
550.418	0.38
550.761	0.42
551.104	0.42
551.447	0.39
551.789	0.38
552.132	0.37
552.474	0.4
552.817	0.42
553.159	0.41
553.502	0.39
553.844	0.39
554.186	0.39
554.528	0.4
554.871	0.4
555.213	0.43
555.555	0.38
555.897	0.38
556.239	0.4
556.581	0.38
556.923	0.42
557.265	0.41
557.606	0.43
557.948	0.44
558.29	0.44
558.632	0.45
558.973	0.44
559.315	0.4
559.656	0.41
559.998	0.4
560.339	0.4
560.68	0.44
561.022	0.43
561.363	0.42
561.704	0.39
562.046	0.37
562.387	0.39
562.728	0.39
563.069	0.38
563.41	0.4
563.751	0.4
564.092	0.4
564.432	0.4
564.773	0.41
565.114	0.42
565.455	0.41
565.795	0.42
566.136	0.42
566.477	0.42
566.817	0.44
567.157	0.42
567.498	0.43
567.838	0.42
568.179	0.42
568.519	0.44
568.859	0.44
569.199	0.46
569.539	0.43
569.879	0.42
570.219	0.37
570.559	0.4
570.899	0.42
571.239	0.44
571.579	0.42
571.919	0.42
572.259	0.43
572.598	0.44
572.938	0.43
573.278	0.36
573.617	0.39
573.957	0.41
574.296	0.43
574.635	0.41
574.975	0.43
575.314	0.47
575.653	0.48
575.993	0.44
576.332	0.39
576.671	0.37
577.01	0.39
577.349	0.41
577.688	0.39
578.027	0.37
578.366	0.39
578.704	0.49
579.043	0.51
579.382	0.48
579.721	0.42
580.059	0.38
580.398	0.36
580.736	0.36
581.075	0.33
581.413	0.34
581.752	0.36
582.09	0.39
582.428	0.46
582.766	0.47
583.105	0.46
583.443	0.42
583.781	0.38
584.119	0.37
584.457	0.39
584.795	0.4
585.133	0.43
585.47	0.43
585.808	0.43
586.146	0.4
586.484	0.39
586.821	0.36
587.159	0.37
587.496	0.38
587.834	0.4
588.171	0.39
588.509	0.39
588.846	0.37
589.183	0.41
589.521	0.4
589.858	0.41
590.195	0.45
590.532	0.47
590.869	0.49
591.206	0.45
591.543	0.42
591.88	0.36
592.217	0.35
592.554	0.37
592.89	0.4
593.227	0.4
593.564	0.38
593.9	0.35
594.237	0.38
594.573	0.41
594.91	0.42
595.246	0.46
595.583	0.43
595.919	0.41
596.255	0.45
596.592	0.48
596.928	0.46
597.264	0.44
597.6	0.46
597.936	0.45
598.272	0.39
598.608	0.38
598.944	0.38
599.279	0.37
599.615	0.39
599.951	0.37
600.287	0.35
600.622	0.38
600.958	0.42
601.293	0.46
601.629	0.46
601.964	0.42
602.3	0.37
602.635	0.41
602.97	0.42
603.305	0.45
603.641	0.43
603.976	0.44
604.311	0.4
604.646	0.42
604.981	0.45
605.316	0.43
605.651	0.41
605.986	0.37
606.32	0.38
606.655	0.37
606.99	0.35
607.324	0.37
607.659	0.4
607.993	0.4
608.328	0.36
608.662	0.38
608.997	0.41
609.331	0.41
609.665	0.42
610	0.41
610.334	0.4
610.668	0.43
611.002	0.44
611.336	0.41
611.67	0.39
612.004	0.42
612.338	0.45
612.672	0.47
613.005	0.44
613.339	0.42
613.673	0.36
614.006	0.34
614.34	0.39
614.674	0.38
615.007	0.38
615.341	0.37
615.674	0.37
616.007	0.39
616.341	0.39
616.674	0.38
617.007	0.35
617.34	0.39
617.673	0.44
618.006	0.46
618.339	0.37
618.672	0.34
619.005	0.36
619.338	0.4
619.671	0.47
620.003	0.47
620.336	0.42
620.669	0.38
621.001	0.39
621.334	0.41
621.666	0.39
621.999	0.4
622.331	0.46
622.663	0.4
622.996	0.37
623.328	0.39
623.66	0.39
623.992	0.38
624.324	0.39
624.656	0.41
624.988	0.44
625.32	0.42
625.652	0.37
625.984	0.34
626.316	0.36
626.647	0.39
626.979	0.44
627.311	0.45
627.642	0.43
627.974	0.38
628.305	0.38
628.637	0.39
628.968	0.44
629.299	0.43
629.631	0.36
629.962	0.36
630.293	0.42
630.624	0.37
630.955	0.38
631.286	0.37
631.617	0.38
631.948	0.39
632.279	0.39
632.61	0.38
632.941	0.43
633.271	0.38
633.602	0.42
633.932	0.44
634.263	0.49
634.594	0.45
634.924	0.42
635.254	0.4
635.585	0.32
635.915	0.41
636.245	0.38
636.576	0.39
636.906	0.42
637.236	0.33
637.566	0.36
637.896	0.35
638.226	0.41
638.556	0.38
638.886	0.36
639.215	0.37
639.545	0.42
639.875	0.37
640.204	0.34
640.534	0.31
640.864	0.41
641.193	0.44
641.522	0.45
641.852	0.38
642.181	0.42
642.511	0.38
642.84	0.43
643.169	0.41
643.498	0.35
643.827	0.35
644.156	0.39
644.485	0.39
644.814	0.41
645.143	0.35
645.472	0.37
645.801	0.42
646.129	0.52
646.458	0.52
646.787	0.47
647.115	0.45
647.444	0.43
647.772	0.37
648.101	0.36
648.429	0.31
648.757	0.36
649.085	0.4
649.414	0.34
649.742	0.37
650.07	0.32
650.398	0.46
650.726	0.43
651.054	0.43
651.382	0.38
651.71	0.35
652.038	0.32
652.365	0.32
652.693	0.2
653.021	0.21
653.348	0.46
653.676	0.65
654.003	0.65
654.331	0.51
654.658	0.25
654.985	0.1
655.313	0.08
655.64	0.13
655.967	0.24
656.294	0.3
656.621	0.29
656.948	0.28
657.275	0.27
657.602	0.3
657.929	0.32
658.256	0.38
658.583	0.45
658.909	0.37
659.236	0.47
659.563	0.45
659.889	0.4
660.216	0.4
660.542	0.43
660.869	0.35
661.195	0.48
661.521	0.47
661.847	0.47
662.174	0.46
662.5	0.37
662.826	0.38
663.152	0.41
663.478	0.5
663.804	0.46
664.13	0.4
664.456	0.41
664.781	0.36
665.107	0.37
665.433	0.42
665.758	0.37
666.084	0.42
666.41	0.44
666.735	0.43
667.06	0.47
667.386	0.48
667.711	0.41
668.036	0.42
668.362	0.43
668.687	0.34
669.012	0.43
669.337	0.47
669.662	0.46
669.987	0.5
670.312	0.52
670.637	0.41
670.961	0.4
671.286	0.38
671.611	0.39
671.935	0.31
672.26	0.37
672.585	0.38
672.909	0.39
673.233	0.39
673.558	0.42
673.882	0.48
674.206	0.42
674.531	0.48
674.855	0.46
675.179	0.43
675.503	0.4
675.827	0.51
676.151	0.48
676.475	0.39
676.799	0.42
677.123	0.45
677.446	0.45
677.77	0.46
678.094	0.4
678.417	0.37
678.741	0.33
679.064	0.46
679.388	0.47
679.711	0.54
680.034	0.45
680.358	0.38
680.681	0.39
681.004	0.29
681.327	0.36
681.65	0.46
681.973	0.48
682.296	0.49
682.619	0.47
682.942	0.43
683.265	0.48
683.587	0.5
683.91	0.41
684.233	0.34
684.555	0.32
684.878	0.38
685.2	0.38
685.523	0.45
685.845	0.43
686.168	0.39
686.49	0.36
686.812	0.35
687.134	0.43
687.456	0.44
687.778	0.54
688.1	0.42
688.422	0.39
688.744	0.42
689.066	0.44
689.388	0.51
689.71	0.59
690.031	0.43
690.353	0.35
690.675	0.33
690.996	0.41
691.318	0.46
691.639	0.42
691.96	0.34
692.282	0.37
692.603	0.35
692.924	0.43
693.245	0.5
693.566	0.49
693.887	0.4
694.208	0.3
694.529	0.4
694.85	0.54
695.171	0.55
695.492	0.55
695.813	0.49
696.133	0.37
696.454	0.33
696.775	0.37
697.095	0.37
697.416	0.38
697.736	0.29
698.056	0.43
698.377	0.39
698.697	0.35
699.017	0.39
699.337	0.33
699.657	0.38
699.977	0.38
700.297	0.55
700.617	0.54
700.937	0.62
701.257	0.41
701.577	0.37
701.897	0.27
702.216	0.39
702.536	0.49
702.855	0.41
703.175	0.32
703.494	0.41
703.814	0.26
704.133	0.38
704.452	0.49
704.772	0.54
705.091	0.57
705.41	0.5
705.729	0.5
706.048	0.4
706.367	0.4
706.686	0.37
707.005	0.39
707.324	0.36
707.642	0.34
707.961	0.37
708.28	0.48
708.598	0.54
708.917	0.54
709.235	0.35
709.554	0.33
709.872	0.37
710.191	0.42
710.509	0.46
710.827	0.52
711.145	0.5
711.463	0.49
711.781	0.46
712.099	0.38
712.417	0.42
712.735	0.41
713.053	0.38
713.371	0.43
713.689	0.43
714.006	0.37
714.324	0.28
714.642	0.37
714.959	0.45
715.277	0.41
715.594	0.48
715.911	0.43
716.229	0.48
716.546	0.47
716.863	0.48
717.18	0.47
717.497	0.36
717.814	0.37
718.131	0.3
718.448	0.32
718.765	0.35
719.082	0.45
719.399	0.44
719.715	0.42
720.032	0.44
720.349	0.48
720.665	0.42
720.982	0.38
721.298	0.45
721.615	0.45
721.931	0.38
722.247	0.44
722.563	0.42
722.88	0.44
723.196	0.54
723.512	0.52
723.828	0.52
724.144	0.42
724.46	0.37
724.775	0.45
725.091	0.47
725.407	0.37
725.723	0.52
726.038	0.54
726.354	0.49
726.669	0.46
726.985	0.35
727.3	0.44
727.616	0.42
727.931	0.39
728.246	0.38
728.561	0.44
728.876	0.53
729.192	0.58
729.507	0.53
729.822	0.45
730.136	0.37
730.451	0.39
730.766	0.43
731.081	0.4
731.396	0.36
731.71	0.41
732.025	0.43
732.339	0.45
732.654	0.41
732.968	0.4
733.283	0.36
733.597	0.43
733.911	0.42
734.225	0.4
734.54	0.36
734.854	0.48
735.168	0.43
735.482	0.43
735.796	0.43
736.11	0.33
736.423	0.36
736.737	0.39
737.051	0.48
737.364	0.52
737.678	0.44
737.992	0.37
738.305	0.31
738.619	0.29
738.932	0.25
739.245	0.31
739.559	0.37
739.872	0.35
740.185	0.61
740.498	0.57
740.811	0.54
741.124	0.46
741.437	0.37
741.75	0.26
742.063	0.28
742.376	0.38
742.688	0.4
743.001	0.38
743.314	0.38
743.626	0.52
743.939	0.58
744.251	0.54
744.564	0.38
744.876	0.29
745.188	0.54
745.5	0.46
745.813	0.4
746.125	0.32
746.437	0.32
746.749	0.48
747.061	0.4
747.373	0.48
747.684	0.48
747.996	0.41
748.308	0.53
748.62	0.38
748.931	0.34
749.243	0.37
749.554	0.51
749.866	0.53
750.177	0.43
750.489	0.58
750.8	0.36
751.111	0.41
751.422	0.4
751.733	0.64
752.044	0.44
752.355	0.35
752.666	0.27
752.977	0.35
753.288	0.47
753.599	0.5
753.91	0.42
754.22	0.49
754.531	0.49
754.842	0.47
755.152	0.5
755.463	0.63
755.773	0.51
756.083	0.42
756.394	0.37
756.704	0.26
757.014	0.24
757.324	0.35
757.634	0.29
757.944	0.46
758.254	0.39
758.564	0.42
758.874	0.45
759.184	0.46
759.493	0.39
759.803	0.32
760.113	0.3
760.422	0.29
760.732	0.32
761.041	0.32
761.351	0.36
761.66	0.46
761.969	0.47
762.279	0.4
762.588	0.43
762.897	0.46
763.206	0.44
763.515	0.36
763.824	0.33
764.133	0.28
764.442	0.3
764.75	0.15
765.059	0.31
765.368	0.24
765.676	0.21
765.985	0.4
766.293	0.48
766.602	0.47
766.91	0.45
767.219	0.42
767.527	0.4
767.835	0.29
768.143	0.3
768.451	0.32
768.76	0.34
769.068	0.36
769.375	0.51
769.683	0.26
769.991	0.33
770.299	0.26
770.607	0.28
770.914	0.34
771.222	0.32
771.53	0.33
771.837	0.4
772.144	0.36
772.452	0.24
772.759	0.32
773.066	0.27
773.374	0.36
773.681	0.13
773.988	0.38
774.295	0.3
774.602	0.11
774.909	0.27
775.216	0.33
775.523	0.57
775.829	0.41
776.136	0.25
776.443	0.31
776.749	0.45
777.056	1.04
777.362	0.44
777.669	0.27
777.975	0.2
778.281	0.3
778.588	0.09
778.894	0.33
779.2	0.5
779.506	0.34
779.812	0.51
780.118	0.36
780.424	0.24
780.73	0.19
781.036	0.28
781.341	0.12
781.647	0.34
781.953	0.37
782.258	0.23
782.564	0.23
782.869	0.23
783.175	0.16
783.48	0.13
783.785	0.22
784.091	0.4
784.396	0.28
784.701	0.38
785.006	0.4
785.311	0.19
785.616	0.18
785.921	0.25
786.226	0.13
786.53	0.29
786.835	0.35
787.14	0.22
787.444	0.22
787.749	0.16
788.053	0.02
788.358	0.24
788.662	0.39
788.967	0.17
789.271	0.33
789.575	0.26
789.879	0.16
790.183	0.22
790.487	0.04
790.791	0.04
791.095	0.16
791.399	0.18
791.703	0.19
792.007	0.14
792.31	0.25
792.614	0.22
792.918	0.26
793.221	0.19
793.525	0.15
793.828	0.18
794.131	0.17
794.435	-0.01
794.738	-0.14
795.041	-0.02
795.344	0.43
795.647	-0.11
795.95	0.27
796.253	0.33
796.556	0.11
796.859	0.18
797.162	0.44
797.465	0.11
797.767	-0.03
798.07	0.38
798.372	0.2
798.675	0.26
798.977	0.17
799.28	0.31
799.582	0.16
799.884	-0
800.186	-0
800.489	0.02
800.791	-0
801.093	-1.03
801.395	0.07
801.697	-0.07
801.999	-0.2
802.3	0.2
802.602	0.09
802.904	0.13
803.205	0.03
803.507	-0.02
803.809	-0.57
804.11	0.26
804.411	0.1
804.713	0.53
805.014	0.12
805.315	0.33
805.616	0.32
805.918	-0
806.219	-0.15
806.52	0.38
806.821	0.19
807.121	-0
807.422	0.5
807.723	-0
808.024	0.36
808.324	-0.3
808.625	-0.66
808.926	-0.17
809.226	-0.07
809.526	-0
809.827	-0.72
810.127	0.57
810.427	-0.06
810.728	-0.79
811.028	-0
811.328	-0.43
811.628	0.07
811.928	0.04
812.228	-0.16
812.527	-0.19
812.827	0.14
813.127	-0.08
813.427	-0
813.726	-0.46
814.026	0.03
814.325	0.4
814.625	-0.05
814.924	-0.78
815.223	0.12
815.523	-0.98
815.822	-1.21
816.121	0.67
816.42	0.05
816.719	0.18
817.018	-0
817.317	-0
817.616	0.61
817.915	0.46
818.214	-0
818.512	0.11
818.811	0.03
819.109	-0
819.408	0.38
819.706	-0.44
820.005	0.82
820.303	0.21
820.601	0.21
820.9	0.17
821.198	-0.4
821.496	0.05
821.794	-2
822.092	-0.13
822.39	-0
822.688	0.07
822.985	-0.31
823.283	-0
823.581	0
823.879	0.22
824.176	0.19
824.474	0.33
824.771	-0
825.068	0.3
825.366	-0.21
825.663	-0
825.96	-0.35
826.257	0.03
826.555	0.1
826.852	-0
827.149	0.01
827.446	0.22
827.742	0.18
828.039	0.37
828.336	0.33
828.633	-0.03
828.929	-0.08
829.226	-0.62
829.522	-0
829.819	0.12
830.115	0.15
830.412	0.25
830.708	-0
831.004	0.44
831.3	0.38
831.596	0.28
831.892	0.01
832.188	0.7
832.484	0.53
832.78	-0
833.076	0.02
833.372	0.31
833.668	0.44
833.963	0.01
834.259	-0
834.554	0.54
834.85	0.42
835.145	-0.06
835.441	0.19
835.736	0.16
836.031	-0.28
836.326	-0.8
836.621	-0.03
836.916	0.21
837.211	0.12
837.506	-0.96
837.801	0.03
838.096	-0.1
838.391	0.23
838.685	-0
838.98	-0.32
839.275	-0.95
839.569	-0.24
839.864	0.3
840.158	-0
840.452	0.11
840.747	0.1
841.041	0.18
841.335	0.18
841.629	1.27
841.923	-0.03
842.217	0.93
842.511	0.09
842.805	-0
843.099	0.53
843.393	-0.05
843.686	-0.74
843.98	1.2
844.273	-0
844.567	-0
844.86	-0
845.154	0.21
845.447	-0
845.74	0.47
846.034	0.02
846.327	0.17
846.62	0.56
846.913	-0
847.206	0.19
847.499	0.13
847.792	0.32
848.084	0.02
848.377	-0.06
848.67	0.56
848.962	0.03
849.255	-0
849.548	0.54
849.84	-0.03
850.132	-0
850.425	-0
850.717	2.15
851.009	0.07
851.301	0.33
851.593	-0
851.885	-0
852.177	-0.01
852.469	0.19
852.761	-0.92
853.053	0.96
853.345	0.19
853.636	0.37
853.928	-0
854.219	0.67
854.511	0.25
854.802	-0
855.094	0.69
855.385	0.8
855.676	-0.25
855.967	1.55
856.259	0.12
856.55	-0.14
856.841	-0
857.132	0.22
857.423	-0.32
857.713	-0.32
858.004	0.28
858.295	0.23
858.585	-0
858.876	1.36
859.167	-0.12
859.457	-0.24
859.747	0.94
860.038	-0.41
860.328	0.34
860.618	-0.07
860.909	-0.67
861.199	0.2
861.489	0.16
861.779	-0.24
862.069	-0
862.358	-0.12
862.648	0.06
862.938	0.18
863.228	0.03
863.517	0.29
863.807	0.47
864.096	-1.15
864.386	-0
864.675	-0.23
864.965	-0.24
865.254	0.25
865.543	0.15
865.832	-0
866.121	-0.12
866.41	-0
866.699	-0.2
866.988	-0
867.277	0.2
867.566	0.22
867.855	-0
868.143	-0.5
868.432	0.18
868.72	0.48
869.009	0.18
869.297	-0
869.586	-0.12
869.874	0.04
870.162	0.36
870.45	-0.02
870.739	-0.67
871.027	-0.6
871.315	-0
871.603	-0
871.89	-0
872.178	0.56
872.466	1.67
872.754	-1.09
873.041	0.07
873.329	0.19
873.616	0.23
873.904	0.36
874.191	-0
874.479	-0
874.766	-0
875.053	-0
