Data from VictorAnthra_Absorbance__6__00026.txt Node

Date: Thu Oct 10 15:49:15 EDT 2024
User: earladmin
Spectrometer: FLCH01037
Trigger mode: 0
Integration Time (sec): 1.000000E-1
Scans to average: 5
Electric dark correction enabled: true
Nonlinearity correction enabled: false
Boxcar width: 2
XAxis mode: Wavelengths
Number of Pixels in Spectrum: 2048
>>>>>Begin Spectral Data<<<<<
178.246	0.51
178.631	0.83
179.016	2.5
179.401	0.19
179.785	0.1
180.17	-0.73
180.554	0.59
180.939	0.01
181.323	0.1
181.708	-0.01
182.092	-0
182.477	0
182.861	1.07
183.245	-0.15
183.63	0.22
184.014	-0
184.398	-0.2
184.782	-0.13
185.167	-0.04
185.551	-0.28
185.935	0.22
186.319	-0.06
186.703	-0.21
187.087	-0.07
187.471	-0
187.855	-0.4
188.238	-0.55
188.622	-0
189.006	0.32
189.39	-0.2
189.774	0.11
190.157	-0
190.541	-0.24
190.925	0.08
191.308	0.21
191.692	0.3
192.075	0.32
192.459	-0.97
192.842	0.06
193.226	-0
193.609	-0.4
193.992	0.46
194.376	0.11
194.759	-0
195.142	0.21
195.525	0.28
195.909	0.87
196.292	0.45
196.675	-0
197.058	0.18
197.441	-0
197.824	0.19
198.207	-0
198.59	-0.18
198.973	0.07
199.356	0.33
199.738	0.56
200.121	0.29
200.504	0.52
200.887	-0
201.269	0.25
201.652	-0
202.035	-0.05
202.417	0.34
202.8	-0
203.182	-0.21
203.565	0.14
203.947	-0
204.329	0.2
204.712	0.22
205.094	-0
205.476	0.1
205.859	-0.15
206.241	0.59
206.623	0.31
207.005	-0
207.387	0.18
207.769	-0.55
208.151	-0
208.533	-0
208.915	-0.1
209.297	0.12
209.679	0.12
210.061	0.59
210.443	-0
210.825	-0
211.206	-0
211.588	0.58
211.97	0.72
212.351	0.02
212.733	0.44
213.115	0.59
213.496	0.19
213.878	0.48
214.259	-0.08
214.641	0.95
215.022	-0
215.403	0.85
215.785	-0
216.166	-0.71
216.547	-0
216.928	-0
217.31	2.12
217.691	0.85
218.072	-0.24
218.453	-0
218.834	-0
219.215	-0.05
219.596	0.15
219.977	0.39
220.358	-0.21
220.739	0.59
221.119	0.1
221.5	-0
221.881	0.35
222.262	0.26
222.642	0.43
223.023	-0
223.403	-0.35
223.784	0.15
224.165	-0
224.545	-0
224.926	-0
225.306	-0.07
225.686	0.24
226.067	-0.2
226.447	0.31
226.827	0.36
227.207	0.09
227.588	-0
227.968	-0
228.348	0.62
228.728	0.57
229.108	0.07
229.488	0.98
229.868	-1.02
230.248	1.69
230.628	0.63
231.008	-0
231.388	-0
231.767	0.57
232.147	-0.29
232.527	0.46
232.907	0.1
233.286	0.27
233.666	-0
234.046	-0
234.425	1.07
234.805	0.26
235.184	0.65
235.564	0.09
235.943	0.05
236.322	0.09
236.702	0.34
237.081	-0.22
237.46	0.59
237.839	-0.14
238.219	0.18
238.598	0.23
238.977	0.32
239.356	0.83
239.735	0.04
240.114	-0
240.493	0.16
240.872	0.22
241.251	0.32
241.629	0.18
242.008	0.61
242.387	0.4
242.766	0.37
243.145	-0.09
243.523	0.32
243.902	0.39
244.28	0.85
244.659	-0
245.037	0.33
245.416	-0
245.794	0.49
246.173	-0
246.551	0.34
246.93	0.38
247.308	0.92
247.686	-0
248.064	0.9
248.442	-0
248.821	1.01
249.199	0.86
249.577	0.62
249.955	0.49
250.333	0.5
250.711	-0
251.089	0.81
251.467	-0
251.844	0.65
252.222	0.35
252.6	0.58
252.978	1.24
253.356	0.53
253.733	-0
254.111	1.05
254.488	0.71
254.866	1.07
255.243	1.16
255.621	1.08
255.998	0.5
256.376	0.79
256.753	0.91
257.13	0.78
257.508	0.44
257.885	0.68
258.262	0.32
258.639	0.21
259.017	0.11
259.394	-0.01
259.771	0.04
260.148	-0.11
260.525	-0.16
260.902	-0.26
261.279	-0.27
261.656	-0.26
262.032	-0.17
262.409	-0.3
262.786	-0.32
263.163	-0.3
263.539	-0.28
263.916	-0.26
264.293	-0.32
264.669	-0.3
265.046	-0.3
265.422	-0.33
265.799	-0.32
266.175	-0.35
266.552	-0.28
266.928	-0.28
267.304	-0.28
267.681	-0.25
268.057	-0.32
268.433	-0.29
268.809	-0.25
269.185	-0.25
269.561	-0.23
269.937	-0.24
270.313	-0.21
270.689	-0.23
271.065	-0.24
271.441	-0.23
271.817	-0.24
272.193	-0.19
272.569	-0.23
272.945	-0.19
273.32	-0.17
273.696	-0.17
274.072	-0.15
274.447	-0.16
274.823	-0.16
275.198	-0.13
275.574	-0.15
275.949	-0.11
276.325	-0.09
276.7	-0.1
277.075	-0.07
277.451	-0.07
277.826	-0.06
278.201	-0.04
278.576	-0.04
278.951	-0.05
279.326	-0.05
279.702	-0.02
280.077	0
280.452	-0.02
280.827	-0.02
281.201	-0
281.576	0.01
281.951	0.01
282.326	0.03
282.701	0.01
283.075	0.05
283.45	0.04
283.825	0.05
284.199	0.06
284.574	0.06
284.949	0.05
285.323	0.07
285.697	0.08
286.072	0.1
286.446	0.11
286.821	0.11
287.195	0.13
287.569	0.14
287.943	0.11
288.318	0.13
288.692	0.13
289.066	0.16
289.44	0.16
289.814	0.17
290.188	0.17
290.562	0.18
290.936	0.18
291.31	0.23
291.684	0.2
292.057	0.24
292.431	0.21
292.805	0.23
293.179	0.24
293.552	0.24
293.926	0.25
294.299	0.25
294.673	0.24
295.046	0.24
295.42	0.28
295.793	0.25
296.167	0.27
296.54	0.25
296.913	0.27
297.287	0.26
297.66	0.29
298.033	0.28
298.406	0.3
298.779	0.3
299.152	0.3
299.525	0.3
299.898	0.32
300.271	0.31
300.644	0.3
301.017	0.33
301.39	0.34
301.763	0.33
302.136	0.34
302.508	0.36
302.881	0.37
303.254	0.38
303.626	0.38
303.999	0.42
304.371	0.43
304.744	0.43
305.116	0.45
305.489	0.45
305.861	0.47
306.233	0.47
306.606	0.49
306.978	0.48
307.35	0.47
307.722	0.48
308.095	0.53
308.467	0.5
308.839	0.5
309.211	0.5
309.583	0.52
309.955	0.48
310.327	0.51
310.698	0.51
311.07	0.49
311.442	0.53
311.814	0.49
312.185	0.5
312.557	0.54
312.929	0.54
313.3	0.5
313.672	0.55
314.043	0.55
314.415	0.55
314.786	0.54
315.158	0.57
315.529	0.58
315.9	0.58
316.272	0.62
316.643	0.62
317.014	0.63
317.385	0.65
317.756	0.65
318.127	0.67
318.499	0.68
318.87	0.73
319.24	0.75
319.611	0.81
319.982	0.83
320.353	0.87
320.724	0.84
321.095	0.84
321.465	0.87
321.836	0.83
322.207	0.85
322.577	0.89
322.948	0.93
323.318	0.9
323.689	0.85
324.059	0.8
324.43	0.79
324.8	0.82
325.171	0.79
325.541	0.83
325.911	0.86
326.281	0.73
326.651	0.85
327.022	0.76
327.392	0.82
327.762	0.77
328.132	0.72
328.502	0.79
328.872	0.78
329.242	0.77
329.611	0.8
329.981	0.82
330.351	0.86
330.721	0.86
331.09	0.91
331.46	0.88
331.83	0.91
332.199	0.97
332.569	1.03
332.938	1.01
333.308	1.01
333.677	1.1
334.047	0.95
334.416	1.06
334.785	1.1
335.154	1.04
335.524	1.17
335.893	1.31
336.262	1.34
336.631	1.34
337	1.19
337.369	2.01
337.738	1.61
338.107	1.5
338.476	1.5
338.845	1.39
339.214	1.48
339.582	1.69
339.951	1.35
340.32	1.12
340.689	1.3
341.057	1.16
341.426	1.02
341.794	1.09
342.163	1.13
342.531	0.99
342.9	0.97
343.268	1.05
343.636	0.94
344.005	0.91
344.373	0.95
344.741	0.97
345.109	0.97
345.477	0.93
345.845	0.92
346.214	1.01
346.582	0.92
346.95	0.95
347.317	0.92
347.685	0.98
348.053	0.97
348.421	1.05
348.789	1.02
349.156	1.12
349.524	1.11
349.892	1.19
350.259	1.42
350.627	1.47
350.995	1.2
351.362	1.35
351.729	1.49
352.097	1.52
352.464	1.33
352.832	1.86
353.199	1.81
353.566	1.3
353.933	1.81
354.3	1.52
354.668	1.79
355.035	1.7
355.402	1.72
355.769	2.08
356.136	1.67
356.503	2.46
356.869	1.93
357.236	1.85
357.603	1.78
357.97	1.63
358.337	1.48
358.703	1.29
359.07	1.37
359.436	1.28
359.803	1.02
360.17	1.01
360.536	1.01
360.902	0.91
361.269	0.9
361.635	0.9
362.001	0.85
362.368	0.89
362.734	0.82
363.1	0.77
363.466	0.75
363.832	0.75
364.198	0.72
364.564	0.75
364.93	0.74
365.296	0.74
365.662	0.79
366.028	0.74
366.394	0.78
366.76	0.78
367.125	0.86
367.491	0.87
367.857	0.89
368.222	0.98
368.588	1.05
368.953	1
369.319	1.02
369.684	1.07
370.05	1.1
370.415	1.05
370.781	1.22
371.146	1.24
371.511	1.3
371.876	1.19
372.241	1.33
372.607	1.33
372.972	1.46
373.337	1.33
373.702	1.32
374.067	1.49
374.431	2.65
374.796	1.57
375.161	1.6
375.526	1.46
375.891	1.42
376.255	1.63
376.62	1.51
376.985	1.32
377.349	1.24
377.714	1.08
378.078	1.05
378.443	0.92
378.807	0.82
379.172	0.76
379.536	0.69
379.9	0.65
380.264	0.58
380.629	0.59
380.993	0.56
381.357	0.49
381.721	0.47
382.085	0.46
382.449	0.44
382.813	0.4
383.177	0.38
383.541	0.37
383.905	0.36
384.268	0.36
384.632	0.35
384.996	0.34
385.359	0.34
385.723	0.33
386.087	0.32
386.45	0.32
386.814	0.33
387.177	0.31
387.541	0.32
387.904	0.31
388.267	0.3
388.631	0.31
388.994	0.32
389.357	0.31
389.72	0.31
390.083	0.31
390.446	0.32
390.809	0.31
391.172	0.3
391.535	0.33
391.898	0.32
392.261	0.3
392.624	0.28
392.987	0.31
393.35	0.32
393.712	0.3
394.075	0.31
394.437	0.31
394.8	0.31
395.163	0.34
395.525	0.32
395.888	0.32
396.25	0.31
396.612	0.29
396.975	0.3
397.337	0.3
397.699	0.31
398.061	0.29
398.424	0.32
398.786	0.3
399.148	0.32
399.51	0.31
399.872	0.31
400.234	0.29
400.596	0.29
400.957	0.3
401.319	0.31
401.681	0.32
402.043	0.3
402.404	0.31
402.766	0.31
403.128	0.32
403.489	0.32
403.851	0.32
404.212	0.3
404.574	0.31
404.935	0.33
405.296	0.32
405.658	0.34
406.019	0.32
406.38	0.31
406.741	0.32
407.103	0.3
407.464	0.31
407.825	0.31
408.186	0.32
408.547	0.33
408.908	0.32
409.268	0.31
409.629	0.31
409.99	0.31
410.351	0.32
410.712	0.34
411.072	0.34
411.433	0.32
411.793	0.33
412.154	0.32
412.515	0.35
412.875	0.33
413.235	0.33
413.596	0.34
413.956	0.33
414.316	0.34
414.677	0.34
415.037	0.32
415.397	0.31
415.757	0.3
416.117	0.32
416.477	0.33
416.837	0.34
417.197	0.34
417.557	0.35
417.917	0.34
418.277	0.34
418.637	0.35
418.996	0.34
419.356	0.35
419.716	0.36
420.075	0.34
420.435	0.33
420.794	0.31
421.154	0.33
421.513	0.32
421.873	0.32
422.232	0.34
422.591	0.33
422.95	0.33
423.31	0.33
423.669	0.33
424.028	0.36
424.387	0.36
424.746	0.33
425.105	0.36
425.464	0.36
425.823	0.34
426.182	0.36
426.541	0.36
426.899	0.36
427.258	0.35
427.617	0.36
427.976	0.38
428.334	0.35
428.693	0.36
429.051	0.35
429.41	0.35
429.768	0.32
430.127	0.35
430.485	0.34
430.843	0.35
431.202	0.35
431.56	0.36
431.918	0.37
432.276	0.36
432.634	0.33
432.992	0.36
433.35	0.35
433.708	0.36
434.066	0.35
434.424	0.34
434.782	0.33
435.14	0.36
435.497	0.37
435.855	0.36
436.213	0.36
436.57	0.35
436.928	0.36
437.285	0.36
437.643	0.37
438	0.32
438.358	0.36
438.715	0.37
439.072	0.35
439.43	0.35
439.787	0.38
440.144	0.36
440.501	0.38
440.858	0.34
441.215	0.36
441.572	0.37
441.929	0.36
442.286	0.35
442.643	0.36
443	0.36
443.357	0.36
443.714	0.37
444.07	0.39
444.427	0.37
444.783	0.39
445.14	0.38
445.497	0.38
445.853	0.35
446.209	0.36
446.566	0.36
446.922	0.36
447.279	0.35
447.635	0.37
447.991	0.35
448.347	0.36
448.703	0.35
449.059	0.36
449.415	0.36
449.771	0.36
450.127	0.34
450.483	0.36
450.839	0.37
451.195	0.37
451.551	0.36
451.906	0.38
452.262	0.38
452.618	0.37
452.973	0.38
453.329	0.37
453.685	0.36
454.04	0.38
454.395	0.36
454.751	0.37
455.106	0.36
455.461	0.35
455.817	0.36
456.172	0.35
456.527	0.38
456.882	0.37
457.237	0.37
457.592	0.34
457.947	0.36
458.302	0.41
458.657	0.39
459.012	0.36
459.367	0.36
459.721	0.36
460.076	0.35
460.431	0.36
460.785	0.36
461.14	0.38
461.495	0.38
461.849	0.37
462.204	0.38
462.558	0.38
462.912	0.4
463.267	0.39
463.621	0.38
463.975	0.35
464.329	0.36
464.683	0.35
465.038	0.36
465.392	0.35
465.746	0.37
466.1	0.36
466.454	0.37
466.807	0.39
467.161	0.36
467.515	0.36
467.869	0.39
468.222	0.35
468.576	0.38
468.93	0.39
469.283	0.38
469.637	0.38
469.99	0.39
470.344	0.36
470.697	0.37
471.05	0.4
471.404	0.37
471.757	0.38
472.11	0.37
472.463	0.4
472.816	0.41
473.169	0.37
473.522	0.39
473.875	0.38
474.228	0.37
474.581	0.37
474.934	0.39
475.287	0.39
475.64	0.37
475.992	0.38
476.345	0.37
476.698	0.37
477.05	0.38
477.403	0.39
477.755	0.38
478.108	0.39
478.46	0.36
478.812	0.39
479.165	0.39
479.517	0.38
479.869	0.38
480.221	0.37
480.574	0.38
480.926	0.38
481.278	0.37
481.63	0.38
481.982	0.38
482.333	0.37
482.685	0.39
483.037	0.39
483.389	0.41
483.741	0.38
484.092	0.37
484.444	0.4
484.796	0.4
485.147	0.38
485.499	0.38
485.85	0.36
486.201	0.39
486.553	0.38
486.904	0.36
487.255	0.37
487.607	0.37
487.958	0.37
488.309	0.38
488.66	0.37
489.011	0.38
489.362	0.39
489.713	0.38
490.064	0.39
490.415	0.36
490.765	0.38
491.116	0.39
491.467	0.38
491.818	0.38
492.168	0.4
492.519	0.36
492.869	0.39
493.22	0.4
493.57	0.4
493.921	0.39
494.271	0.39
494.621	0.38
494.972	0.38
495.322	0.39
495.672	0.38
496.022	0.36
496.372	0.38
496.722	0.36
497.072	0.39
497.422	0.38
497.772	0.35
498.122	0.36
498.472	0.38
498.822	0.39
499.171	0.39
499.521	0.37
499.871	0.38
500.22	0.37
500.57	0.39
500.919	0.4
501.269	0.39
501.618	0.39
501.967	0.37
502.317	0.38
502.666	0.37
503.015	0.38
503.364	0.38
503.713	0.36
504.063	0.37
504.412	0.36
504.761	0.36
505.11	0.38
505.458	0.38
505.807	0.38
506.156	0.38
506.505	0.38
506.854	0.38
507.202	0.37
507.551	0.37
507.899	0.39
508.248	0.39
508.596	0.38
508.945	0.38
509.293	0.37
509.642	0.38
509.99	0.38
510.338	0.4
510.686	0.39
511.034	0.37
511.383	0.38
511.731	0.36
512.079	0.38
512.427	0.38
512.775	0.38
513.122	0.37
513.47	0.38
513.818	0.42
514.166	0.41
514.513	0.41
514.861	0.4
515.209	0.36
515.556	0.38
515.904	0.37
516.251	0.38
516.599	0.36
516.946	0.35
517.293	0.53
517.641	0.39
517.988	0.35
518.335	0.38
518.682	0.41
519.029	0.39
519.376	0.37
519.723	0.4
520.07	0.4
520.417	0.38
520.764	0.39
521.111	0.39
521.458	0.4
521.804	0.38
522.151	0.4
522.498	0.39
522.844	0.39
523.191	0.39
523.537	0.39
523.884	0.38
524.23	0.38
524.576	0.39
524.923	0.4
525.269	0.38
525.615	0.4
525.961	0.41
526.307	0.4
526.653	0.41
526.999	0.37
527.345	0.4
527.691	0.39
528.037	0.39
528.383	0.39
528.729	0.38
529.075	0.39
529.42	0.4
529.766	0.38
530.112	0.4
530.457	0.4
530.803	0.39
531.148	0.4
531.493	0.39
531.839	0.41
532.184	0.39
532.529	0.43
532.875	0.39
533.22	0.4
533.565	0.39
533.91	0.38
534.255	0.38
534.6	0.38
534.945	0.39
535.29	0.38
535.635	0.43
535.98	0.41
536.324	0.42
536.669	0.4
537.014	0.41
537.358	0.39
537.703	0.4
538.047	0.39
538.392	0.38
538.736	0.39
539.081	0.39
539.425	0.38
539.769	0.4
540.113	0.41
540.458	0.39
540.802	0.39
541.146	0.41
541.49	0.38
541.834	0.39
542.178	0.39
542.522	0.39
542.866	0.43
543.209	0.39
543.553	0.4
543.897	0.41
544.241	0.38
544.584	0.4
544.928	0.39
545.271	0.41
545.615	0.4
545.958	0.37
546.302	0.37
546.645	0.38
546.988	0.36
547.331	0.37
547.675	0.37
548.018	0.38
548.361	0.38
548.704	0.38
549.047	0.39
549.39	0.43
549.733	0.41
550.076	0.41
550.418	0.38
550.761	0.41
551.104	0.42
551.447	0.39
551.789	0.38
552.132	0.36
552.474	0.39
552.817	0.42
553.159	0.41
553.502	0.38
553.844	0.38
554.186	0.37
554.528	0.39
554.871	0.39
555.213	0.42
555.555	0.38
555.897	0.38
556.239	0.4
556.581	0.38
556.923	0.42
557.265	0.41
557.606	0.43
557.948	0.43
558.29	0.44
558.632	0.45
558.973	0.43
559.315	0.39
559.656	0.4
559.998	0.39
560.339	0.4
560.68	0.43
561.022	0.43
561.363	0.42
561.704	0.39
562.046	0.37
562.387	0.39
562.728	0.38
563.069	0.38
563.41	0.4
563.751	0.4
564.092	0.4
564.432	0.4
564.773	0.41
565.114	0.42
565.455	0.41
565.795	0.42
566.136	0.42
566.477	0.41
566.817	0.44
567.157	0.43
567.498	0.43
567.838	0.42
568.179	0.42
568.519	0.43
568.859	0.44
569.199	0.46
569.539	0.42
569.879	0.42
570.219	0.37
570.559	0.4
570.899	0.43
571.239	0.44
571.579	0.42
571.919	0.42
572.259	0.43
572.598	0.44
572.938	0.42
573.278	0.36
573.617	0.39
573.957	0.41
574.296	0.43
574.635	0.4
574.975	0.43
575.314	0.47
575.653	0.48
575.993	0.44
576.332	0.39
576.671	0.37
577.01	0.39
577.349	0.4
577.688	0.38
578.027	0.36
578.366	0.39
578.704	0.49
579.043	0.51
579.382	0.48
579.721	0.42
580.059	0.38
580.398	0.36
580.736	0.36
581.075	0.33
581.413	0.34
581.752	0.35
582.09	0.39
582.428	0.46
582.766	0.47
583.105	0.46
583.443	0.42
583.781	0.38
584.119	0.36
584.457	0.38
584.795	0.4
585.133	0.43
585.47	0.44
585.808	0.43
586.146	0.41
586.484	0.39
586.821	0.36
587.159	0.37
587.496	0.39
587.834	0.41
588.171	0.39
588.509	0.39
588.846	0.37
589.183	0.41
589.521	0.4
589.858	0.41
590.195	0.45
590.532	0.47
590.869	0.48
591.206	0.45
591.543	0.41
591.88	0.36
592.217	0.35
592.554	0.37
592.89	0.41
593.227	0.4
593.564	0.38
593.9	0.36
594.237	0.39
594.573	0.41
594.91	0.42
595.246	0.46
595.583	0.43
595.919	0.41
596.255	0.44
596.592	0.48
596.928	0.45
597.264	0.44
597.6	0.46
597.936	0.45
598.272	0.39
598.608	0.38
598.944	0.37
599.279	0.37
599.615	0.38
599.951	0.36
600.287	0.35
600.622	0.38
600.958	0.42
601.293	0.46
601.629	0.46
601.964	0.42
602.3	0.37
602.635	0.41
602.97	0.42
603.305	0.45
603.641	0.43
603.976	0.44
604.311	0.41
604.646	0.43
604.981	0.45
605.316	0.44
605.651	0.41
605.986	0.37
606.32	0.38
606.655	0.37
606.99	0.35
607.324	0.37
607.659	0.4
607.993	0.39
608.328	0.35
608.662	0.38
608.997	0.4
609.331	0.4
609.665	0.41
610	0.4
610.334	0.39
610.668	0.42
611.002	0.44
611.336	0.41
611.67	0.39
612.004	0.42
612.338	0.45
612.672	0.47
613.005	0.44
613.339	0.41
613.673	0.36
614.006	0.34
614.34	0.38
614.674	0.38
615.007	0.37
615.341	0.37
615.674	0.38
616.007	0.4
616.341	0.39
616.674	0.38
617.007	0.35
617.34	0.39
617.673	0.43
618.006	0.46
618.339	0.36
618.672	0.34
619.005	0.36
619.338	0.4
619.671	0.48
620.003	0.47
620.336	0.42
620.669	0.38
621.001	0.38
621.334	0.4
621.666	0.37
621.999	0.37
622.331	0.44
622.663	0.38
622.996	0.36
623.328	0.38
623.66	0.38
623.992	0.37
624.324	0.38
624.656	0.4
624.988	0.44
625.32	0.43
625.652	0.37
625.984	0.34
626.316	0.35
626.647	0.37
626.979	0.42
627.311	0.44
627.642	0.42
627.974	0.37
628.305	0.38
628.637	0.39
628.968	0.43
629.299	0.41
629.631	0.34
629.962	0.34
630.293	0.39
630.624	0.36
630.955	0.38
631.286	0.37
631.617	0.39
631.948	0.4
632.279	0.39
632.61	0.38
632.941	0.41
633.271	0.36
633.602	0.4
633.932	0.42
634.263	0.48
634.594	0.44
634.924	0.4
635.254	0.39
635.585	0.32
635.915	0.39
636.245	0.36
636.576	0.38
636.906	0.41
637.236	0.33
637.566	0.36
637.896	0.38
638.226	0.43
638.556	0.4
638.886	0.38
639.215	0.4
639.545	0.45
639.875	0.38
640.204	0.35
640.534	0.32
640.864	0.41
641.193	0.41
641.522	0.42
641.852	0.36
642.181	0.39
642.511	0.35
642.84	0.42
643.169	0.42
643.498	0.34
643.827	0.35
644.156	0.4
644.485	0.4
644.814	0.42
645.143	0.35
645.472	0.37
645.801	0.41
646.129	0.51
646.458	0.51
646.787	0.47
647.115	0.44
647.444	0.42
647.772	0.35
648.101	0.34
648.429	0.3
648.757	0.35
649.085	0.41
649.414	0.36
649.742	0.37
650.07	0.32
650.398	0.45
650.726	0.43
651.054	0.43
651.382	0.39
651.71	0.36
652.038	0.34
652.365	0.34
652.693	0.22
653.021	0.22
653.348	0.47
653.676	0.66
654.003	0.65
654.331	0.51
654.658	0.25
654.985	0.1
655.313	0.08
655.64	0.12
655.967	0.25
656.294	0.3
656.621	0.3
656.948	0.29
657.275	0.27
657.602	0.3
657.929	0.32
658.256	0.35
658.583	0.4
658.909	0.35
659.236	0.44
659.563	0.43
659.889	0.39
660.216	0.4
660.542	0.43
660.869	0.36
661.195	0.48
661.521	0.47
661.847	0.46
662.174	0.44
662.5	0.35
662.826	0.37
663.152	0.38
663.478	0.47
663.804	0.44
664.13	0.38
664.456	0.39
664.781	0.34
665.107	0.34
665.433	0.37
665.758	0.32
666.084	0.36
666.41	0.38
666.735	0.39
667.06	0.44
667.386	0.46
667.711	0.39
668.036	0.41
668.362	0.41
668.687	0.33
669.012	0.42
669.337	0.45
669.662	0.45
669.987	0.49
670.312	0.5
670.637	0.4
670.961	0.38
671.286	0.35
671.611	0.35
671.935	0.3
672.26	0.34
672.585	0.36
672.909	0.36
673.233	0.35
673.558	0.37
673.882	0.44
674.206	0.38
674.531	0.45
674.855	0.43
675.179	0.39
675.503	0.37
675.827	0.49
676.151	0.45
676.475	0.37
676.799	0.41
677.123	0.43
677.446	0.43
677.77	0.45
678.094	0.39
678.417	0.35
678.741	0.3
679.064	0.43
679.388	0.44
679.711	0.52
680.034	0.42
680.358	0.36
680.681	0.37
681.004	0.28
681.327	0.34
681.65	0.46
681.973	0.48
682.296	0.48
682.619	0.46
682.942	0.41
683.265	0.45
683.587	0.48
683.91	0.4
684.233	0.33
684.555	0.31
684.878	0.38
685.2	0.38
685.523	0.44
685.845	0.42
686.168	0.4
686.49	0.38
686.812	0.36
687.134	0.45
687.456	0.46
687.778	0.54
688.1	0.42
688.422	0.4
688.744	0.42
689.066	0.45
689.388	0.51
689.71	0.57
690.031	0.41
690.353	0.34
690.675	0.31
690.996	0.39
691.318	0.46
691.639	0.44
691.96	0.35
692.282	0.4
692.603	0.37
692.924	0.42
693.245	0.48
693.566	0.46
693.887	0.36
694.208	0.26
694.529	0.39
694.85	0.52
695.171	0.53
695.492	0.53
695.813	0.46
696.133	0.33
696.454	0.31
696.775	0.34
697.095	0.33
697.416	0.33
697.736	0.27
698.056	0.39
698.377	0.39
698.697	0.35
699.017	0.39
699.337	0.33
699.657	0.37
699.977	0.37
700.297	0.54
700.617	0.54
700.937	0.6
701.257	0.4
701.577	0.36
701.897	0.25
702.216	0.37
702.536	0.46
702.855	0.4
703.175	0.31
703.494	0.39
703.814	0.26
704.133	0.38
704.452	0.48
704.772	0.54
705.091	0.57
705.41	0.49
705.729	0.5
706.048	0.39
706.367	0.39
706.686	0.35
707.005	0.35
707.324	0.33
707.642	0.29
707.961	0.32
708.28	0.43
708.598	0.51
708.917	0.49
709.235	0.33
709.554	0.3
709.872	0.32
710.191	0.39
710.509	0.44
710.827	0.51
711.145	0.5
711.463	0.49
711.781	0.46
712.099	0.39
712.417	0.43
712.735	0.41
713.053	0.36
713.371	0.41
713.689	0.4
714.006	0.34
714.324	0.26
714.642	0.35
714.959	0.42
715.277	0.39
715.594	0.45
715.911	0.38
716.229	0.44
716.546	0.44
716.863	0.44
717.18	0.43
717.497	0.34
717.814	0.34
718.131	0.28
718.448	0.3
718.765	0.34
719.082	0.44
719.399	0.42
719.715	0.39
720.032	0.42
720.349	0.46
720.665	0.42
720.982	0.39
721.298	0.46
721.615	0.47
721.931	0.4
722.247	0.46
722.563	0.43
722.88	0.43
723.196	0.54
723.512	0.53
723.828	0.51
724.144	0.43
724.46	0.4
724.775	0.47
725.091	0.49
725.407	0.38
725.723	0.54
726.038	0.53
726.354	0.47
726.669	0.44
726.985	0.35
727.3	0.43
727.616	0.41
727.931	0.38
728.246	0.38
728.561	0.43
728.876	0.52
729.192	0.56
729.507	0.52
729.822	0.44
730.136	0.37
730.451	0.4
730.766	0.45
731.081	0.41
731.396	0.38
731.71	0.41
732.025	0.43
732.339	0.44
732.654	0.41
732.968	0.4
733.283	0.36
733.597	0.43
733.911	0.42
734.225	0.39
734.54	0.35
734.854	0.46
735.168	0.43
735.482	0.44
735.796	0.44
736.11	0.32
736.423	0.36
736.737	0.39
737.051	0.48
737.364	0.52
737.678	0.45
737.992	0.37
738.305	0.3
738.619	0.27
738.932	0.24
739.245	0.27
739.559	0.35
739.872	0.33
740.185	0.56
740.498	0.52
740.811	0.53
741.124	0.44
741.437	0.36
741.75	0.26
742.063	0.28
742.376	0.38
742.688	0.39
743.001	0.35
743.314	0.35
743.626	0.51
743.939	0.56
744.251	0.52
744.564	0.4
744.876	0.29
745.188	0.53
745.5	0.45
745.813	0.39
746.125	0.33
746.437	0.33
746.749	0.48
747.061	0.39
747.373	0.44
747.684	0.44
747.996	0.38
748.308	0.47
748.62	0.33
748.931	0.29
749.243	0.31
749.554	0.44
749.866	0.44
750.177	0.39
750.489	0.54
750.8	0.36
751.111	0.41
751.422	0.43
751.733	0.66
752.044	0.42
752.355	0.31
752.666	0.23
752.977	0.29
753.288	0.4
753.599	0.44
753.91	0.42
754.22	0.49
754.531	0.5
754.842	0.47
755.152	0.5
755.463	0.61
755.773	0.5
756.083	0.4
756.394	0.36
756.704	0.26
757.014	0.24
757.324	0.34
757.634	0.28
757.944	0.43
758.254	0.37
758.564	0.4
758.874	0.44
759.184	0.48
759.493	0.4
759.803	0.33
760.113	0.31
760.422	0.32
760.732	0.32
761.041	0.31
761.351	0.35
761.66	0.42
761.969	0.43
762.279	0.37
762.588	0.41
762.897	0.44
763.206	0.43
763.515	0.35
763.824	0.33
764.133	0.27
764.442	0.31
764.75	0.16
765.059	0.33
765.368	0.27
765.676	0.23
765.985	0.41
766.293	0.47
766.602	0.47
766.91	0.46
767.219	0.43
767.527	0.42
767.835	0.28
768.143	0.26
768.451	0.27
768.76	0.28
769.068	0.3
769.375	0.47
769.683	0.25
769.991	0.3
770.299	0.23
770.607	0.24
770.914	0.3
771.222	0.3
771.53	0.3
771.837	0.39
772.144	0.35
772.452	0.22
772.759	0.26
773.066	0.22
773.374	0.33
773.681	0.13
773.988	0.36
774.295	0.31
774.602	0.14
774.909	0.25
775.216	0.28
775.523	0.51
775.829	0.33
776.136	0.16
776.443	0.2
776.749	0.39
777.056	0.67
777.362	0.41
777.669	0.28
777.975	0.23
778.281	0.35
778.588	0.13
778.894	0.29
779.2	0.46
779.506	0.32
779.812	0.43
780.118	0.3
780.424	0.22
780.73	0.17
781.036	0.25
781.341	0.1
781.647	0.31
781.953	0.3
782.258	0.19
782.564	0.19
782.869	0.21
783.175	0.1
783.48	0.09
783.785	0.17
784.091	0.32
784.396	0.21
784.701	0.37
785.006	0.41
785.311	0.2
785.616	0.17
785.921	0.25
786.226	0.11
786.53	0.25
786.835	0.28
787.14	0.18
787.444	0.17
787.749	0.09
788.053	-0.05
788.358	0.17
788.662	0.3
788.967	0.1
789.271	0.31
789.575	0.22
789.879	0.16
790.183	0.23
790.487	0.03
790.791	0.04
791.095	0.16
791.399	0.16
791.703	0.17
792.007	0.16
792.31	0.25
792.614	0.23
792.918	0.28
793.221	0.2
793.525	0.13
793.828	0.16
794.131	0.14
794.435	-0.03
794.738	-0.17
795.041	-0.04
795.344	0.4
795.647	-0.16
795.95	0.13
796.253	0.28
796.556	0.06
796.859	0.09
797.162	0.36
797.465	0.09
797.767	-0.07
798.07	0.23
798.372	0.14
798.675	0.16
798.977	0.08
799.28	0.2
799.582	0.06
799.884	-0
800.186	-0
800.489	-0
800.791	-0
801.093	-1.09
801.395	-0.1
801.697	-0.13
801.999	-0.28
802.3	0.3
802.602	0.2
802.904	0.08
803.205	0.01
803.507	-0.05
803.809	-0.44
804.11	0.09
804.411	0.07
804.713	0.45
805.014	0.05
805.315	0.3
805.616	0.32
805.918	-0.02
806.219	-0.17
806.52	0.28
806.821	0.14
807.121	0.24
807.422	0.22
807.723	-0
808.024	0.32
808.324	-0.26
808.625	-0.77
808.926	-0.11
809.226	-0.08
809.526	-0
809.827	-0.8
810.127	0.23
810.427	-0.05
810.728	-0.75
811.028	-0
811.328	-0.88
811.628	0.04
811.928	0.02
812.228	-0.24
812.527	-0.21
812.827	0.34
813.127	-0.04
813.427	-0
813.726	-0.5
814.026	-0.04
814.325	0.15
814.625	-0.3
814.924	-0.89
815.223	-0.01
815.523	-0.95
815.822	-1.18
816.121	0.61
816.42	0.08
816.719	0.15
817.018	-0
817.317	0.49
817.616	0.15
817.915	-0.17
818.214	-0
818.512	-0.04
818.811	-0.07
819.109	-0
819.408	0.25
819.706	-0.56
820.005	-0
820.303	0.18
820.601	0.16
820.9	0.14
821.198	-0.42
821.496	-0.06
821.794	-2.17
822.092	-0.29
822.39	-0
822.688	0.25
822.985	0.31
823.283	-0
823.581	0.03
823.879	0.34
824.176	0.22
824.474	0.46
824.771	-0
825.068	0.37
825.366	-0.13
825.663	-0
825.96	-0.38
826.257	-0.01
826.555	0.07
826.852	-0
827.149	-0.01
827.446	0.15
827.742	0.12
828.039	0.58
828.336	0.1
828.633	-0.14
828.929	-0.17
829.226	-0.97
829.522	-0
829.819	0.02
830.115	-0.07
830.412	0.18
830.708	-0
831.004	-0.06
831.3	0.51
831.596	0.34
831.892	0.13
832.188	1.09
832.484	0.57
832.78	-0
833.076	0.09
833.372	0.31
833.668	0.37
833.963	-0.04
834.259	-0
834.554	0.66
834.85	0.37
835.145	-0.06
835.441	0.16
835.736	0.1
836.031	-0.25
836.326	-0.78
836.621	-0.07
836.916	0.16
837.211	0.33
837.506	-0.77
837.801	0.17
838.096	-0.24
838.391	0.11
838.685	-0
838.98	-0
839.275	-1.84
839.569	-0
839.864	0.24
840.158	-0
840.452	-0.11
840.747	-0.03
841.041	-0.01
841.335	-0
841.629	-0
841.923	-0.43
842.217	-0
842.511	0.08
842.805	-0
843.099	0.68
843.393	0.01
843.686	-0.71
843.98	0.81
844.273	-0
844.567	-0
844.86	-0
845.154	0.6
845.447	-0.29
845.74	0.66
846.034	0.03
846.327	0.22
846.62	0.49
846.913	-0
847.206	0.11
847.499	0.46
847.792	0.24
848.084	-0.15
848.377	-0.09
848.67	0.47
848.962	0.15
849.255	-0
849.548	0.64
849.84	0.16
850.132	-0
850.425	0.85
850.717	-0
851.009	1.4
851.301	-0
851.593	-0
851.885	-0
852.177	-0.01
852.469	0.13
852.761	-0.84
853.053	0.56
853.345	-0.01
853.636	-0
853.928	-0
854.219	1.59
854.511	-0
854.802	-0
855.094	1.52
855.385	-0
855.676	-0.2
855.967	-0
856.259	0.2
856.55	-0.24
856.841	-0
857.132	0.17
857.423	-0.32
857.713	-0.32
858.004	0.24
858.295	0.16
858.585	-0
858.876	0.08
859.167	1.53
859.457	0.73
859.747	-0
860.038	0.17
860.328	0.99
860.618	-0.17
860.909	-0.67
861.199	0.2
861.489	0.13
861.779	-0.29
862.069	-0
862.358	0.06
862.648	-0.05
862.938	0.01
863.228	-0.21
863.517	0.21
863.807	0.63
864.096	-1.71
864.386	-0
864.675	-0.22
864.965	-0.29
865.254	0.28
865.543	0.18
865.832	0.74
866.121	-0.32
866.41	0.17
866.699	-0.02
866.988	0.86
867.277	-0.3
867.566	0.33
867.855	-0
868.143	-0.6
868.432	0.28
868.72	0.28
869.009	0.24
869.297	-0
869.586	-0.21
869.874	0.23
870.162	0.48
870.45	-0.51
870.739	-1
871.027	-0.74
871.315	-0
871.603	-0
871.89	-0
872.178	0.8
872.466	-0
872.754	-1.12
873.041	0.06
873.329	0.15
873.616	0.68
873.904	0.61
874.191	-0
874.479	-0
874.766	-0
875.053	0.84
