Data from VictorAnthra_Absorbance__7__00027.txt Node

Date: Thu Oct 10 15:49:16 EDT 2024
User: earladmin
Spectrometer: FLCH01037
Trigger mode: 0
Integration Time (sec): 1.000000E-1
Scans to average: 5
Electric dark correction enabled: true
Nonlinearity correction enabled: false
Boxcar width: 2
XAxis mode: Wavelengths
Number of Pixels in Spectrum: 2048
>>>>>Begin Spectral Data<<<<<
178.246	-0.04
178.631	0.14
179.016	0.31
179.401	0.45
179.785	0.06
180.17	-0.76
180.554	-0.01
180.939	0.13
181.323	-0.03
181.708	-0.02
182.092	-0
182.477	0.33
182.861	0.71
183.245	-0.39
183.63	0.21
184.014	-0
184.398	-0.25
184.782	-0.13
185.167	-0.04
185.551	-0.29
185.935	0.34
186.319	-0.02
186.703	-0.12
187.087	-0.18
187.471	-0
187.855	-0.5
188.238	-0.51
188.622	-0
189.006	0.62
189.39	-0.15
189.774	0.05
190.157	-0
190.541	-0.24
190.925	0.12
191.308	0.34
191.692	0.47
192.075	0.75
192.459	-0.9
192.842	-0
193.226	-0
193.609	0.11
193.992	0.35
194.376	0.18
194.759	-0
195.142	0.32
195.525	0.08
195.909	0.85
196.292	0.34
196.675	-0
197.058	0.16
197.441	-0
197.824	0.29
198.207	-0
198.59	-0.24
198.973	0.15
199.356	0.46
199.738	0.79
200.121	0.29
200.504	0.72
200.887	-0
201.269	0.07
201.652	-0
202.035	-0
202.417	1.06
202.8	-0.48
203.182	0.01
203.565	0.43
203.947	-0
204.329	0.41
204.712	0.09
205.094	-0
205.476	0.16
205.859	-0.11
206.241	1.35
206.623	2.31
207.005	-0
207.387	0.23
207.769	-0.51
208.151	-0
208.533	-0
208.915	0.04
209.297	-0.01
209.679	0.44
210.061	1.48
210.443	-0
210.825	-0
211.206	-0.12
211.588	-1.02
211.97	-0
212.351	0.39
212.733	0.91
213.115	-0
213.496	0.27
213.878	0.77
214.259	-0
214.641	-0
215.022	-0
215.403	1.71
215.785	-0
216.166	-0.69
216.547	-0
216.928	-0
217.31	-0
217.691	0.33
218.072	-0.01
218.453	-0
218.834	-0.83
219.215	0.03
219.596	0.16
219.977	0.22
220.358	-0.17
220.739	0.85
221.119	0.22
221.5	-0
221.881	1
222.262	0.17
222.642	0.42
223.023	-0
223.403	-0.4
223.784	0.14
224.165	0.58
224.545	-0.19
224.926	-0
225.306	-0.09
225.686	0.07
226.067	-0.21
226.447	0.45
226.827	0.53
227.207	0.46
227.588	-0
227.968	-0
228.348	1.18
228.728	0.54
229.108	-0.08
229.488	0.76
229.868	-1.11
230.248	0.94
230.628	0.71
231.008	-0
231.388	0
231.767	-0
232.147	-0.38
232.527	0.45
232.907	0.34
233.286	0.36
233.666	-0
234.046	1.4
234.425	-0
234.805	0.34
235.184	-0
235.564	0.18
235.943	0.18
236.322	0.48
236.702	0.07
237.081	-0
237.46	-0
237.839	0.03
238.219	0.51
238.598	0.29
238.977	0.39
239.356	1.77
239.735	0.07
240.114	-0
240.493	0.22
240.872	0.61
241.251	0.39
241.629	0.37
242.008	0.64
242.387	0.4
242.766	0.35
243.145	-0.06
243.523	0.17
243.902	0.45
244.28	-0
244.659	-0
245.037	0.65
245.416	-0
245.794	0.59
246.173	-0
246.551	0.41
246.93	0.44
247.308	1.02
247.686	-0
248.064	1.13
248.442	-0
248.821	1.2
249.199	1.17
249.577	0.82
249.955	0.57
250.333	0.57
250.711	-0
251.089	0.85
251.467	-0
251.844	0.62
252.222	0.35
252.6	0.66
252.978	1.21
253.356	0.52
253.733	-0
254.111	1.07
254.488	0.65
254.866	1.06
255.243	1.26
255.621	1.3
255.998	0.55
256.376	1.11
256.753	1.17
257.13	1.01
257.508	0.47
257.885	0.8
258.262	0.33
258.639	0.23
259.017	0.12
259.394	0.01
259.771	0.05
260.148	-0.09
260.525	-0.15
260.902	-0.25
261.279	-0.26
261.656	-0.25
262.032	-0.16
262.409	-0.3
262.786	-0.32
263.163	-0.29
263.539	-0.27
263.916	-0.25
264.293	-0.31
264.669	-0.29
265.046	-0.29
265.422	-0.33
265.799	-0.32
266.175	-0.35
266.552	-0.28
266.928	-0.28
267.304	-0.28
267.681	-0.25
268.057	-0.31
268.433	-0.29
268.809	-0.25
269.185	-0.25
269.561	-0.23
269.937	-0.23
270.313	-0.2
270.689	-0.22
271.065	-0.23
271.441	-0.22
271.817	-0.24
272.193	-0.18
272.569	-0.22
272.945	-0.19
273.32	-0.16
273.696	-0.17
274.072	-0.15
274.447	-0.16
274.823	-0.16
275.198	-0.13
275.574	-0.14
275.949	-0.1
276.325	-0.09
276.7	-0.1
277.075	-0.07
277.451	-0.07
277.826	-0.06
278.201	-0.04
278.576	-0.04
278.951	-0.04
279.326	-0.04
279.702	-0.02
280.077	0.01
280.452	-0.01
280.827	-0.01
281.201	-0
281.576	0.01
281.951	0.01
282.326	0.03
282.701	0.01
283.075	0.05
283.45	0.05
283.825	0.05
284.199	0.07
284.574	0.07
284.949	0.05
285.323	0.07
285.697	0.08
286.072	0.1
286.446	0.1
286.821	0.11
287.195	0.13
287.569	0.14
287.943	0.11
288.318	0.12
288.692	0.13
289.066	0.16
289.44	0.16
289.814	0.17
290.188	0.17
290.562	0.18
290.936	0.18
291.31	0.23
291.684	0.2
292.057	0.24
292.431	0.2
292.805	0.23
293.179	0.24
293.552	0.24
293.926	0.26
294.299	0.26
294.673	0.25
295.046	0.25
295.42	0.28
295.793	0.25
296.167	0.27
296.54	0.25
296.913	0.27
297.287	0.27
297.66	0.29
298.033	0.28
298.406	0.3
298.779	0.31
299.152	0.3
299.525	0.31
299.898	0.33
300.271	0.31
300.644	0.3
301.017	0.34
301.39	0.35
301.763	0.33
302.136	0.34
302.508	0.36
302.881	0.38
303.254	0.38
303.626	0.39
303.999	0.42
304.371	0.43
304.744	0.42
305.116	0.44
305.489	0.44
305.861	0.46
306.233	0.46
306.606	0.49
306.978	0.48
307.35	0.47
307.722	0.47
308.095	0.52
308.467	0.5
308.839	0.5
309.211	0.5
309.583	0.53
309.955	0.48
310.327	0.52
310.698	0.52
311.07	0.49
311.442	0.54
311.814	0.51
312.185	0.51
312.557	0.54
312.929	0.55
313.3	0.5
313.672	0.55
314.043	0.55
314.415	0.56
314.786	0.55
315.158	0.59
315.529	0.6
315.9	0.6
316.272	0.63
316.643	0.64
317.014	0.64
317.385	0.67
317.756	0.66
318.127	0.68
318.499	0.68
318.87	0.73
319.24	0.76
319.611	0.83
319.982	0.84
320.353	0.89
320.724	0.87
321.095	0.86
321.465	0.9
321.836	0.86
322.207	0.88
322.577	0.91
322.948	0.97
323.318	0.94
323.689	0.88
324.059	0.82
324.43	0.81
324.8	0.85
325.171	0.81
325.541	0.85
325.911	0.89
326.281	0.75
326.651	0.87
327.022	0.77
327.392	0.82
327.762	0.78
328.132	0.72
328.502	0.79
328.872	0.78
329.242	0.78
329.611	0.8
329.981	0.83
330.351	0.87
330.721	0.87
331.09	0.91
331.46	0.88
331.83	0.92
332.199	0.98
332.569	1.05
332.938	1.02
333.308	1.03
333.677	1.11
334.047	0.95
334.416	1.08
334.785	1.12
335.154	1.07
335.524	1.21
335.893	1.37
336.262	1.37
336.631	1.38
337	1.21
337.369	2.02
337.738	1.65
338.107	1.55
338.476	1.53
338.845	1.42
339.214	1.55
339.582	1.8
339.951	1.4
340.32	1.15
340.689	1.36
341.057	1.2
341.426	1.06
341.794	1.13
342.163	1.15
342.531	1
342.9	0.98
343.268	1.06
343.636	0.96
344.005	0.94
344.373	0.96
344.741	0.98
345.109	0.95
345.477	0.91
345.845	0.89
346.214	1
346.582	0.92
346.95	0.96
347.317	0.94
347.685	1.02
348.053	1.01
348.421	1.09
348.789	1.08
349.156	1.2
349.524	1.16
349.892	1.25
350.259	1.46
350.627	1.49
350.995	1.2
351.362	1.36
351.729	1.45
352.097	1.51
352.464	1.33
352.832	1.85
353.199	1.85
353.566	1.33
353.933	2.01
354.3	1.67
354.668	2.18
355.035	1.95
355.402	1.93
355.769	2.49
356.136	1.69
356.503	2.83
356.869	2.17
357.236	2.13
357.603	2.11
357.97	1.79
358.337	1.58
358.703	1.31
359.07	1.37
359.436	1.29
359.803	1.03
360.17	1.01
360.536	1.02
360.902	0.93
361.269	0.92
361.635	0.9
362.001	0.85
362.368	0.89
362.734	0.82
363.1	0.77
363.466	0.75
363.832	0.76
364.198	0.72
364.564	0.75
364.93	0.74
365.296	0.74
365.662	0.79
366.028	0.75
366.394	0.78
366.76	0.78
367.125	0.86
367.491	0.87
367.857	0.87
368.222	0.95
368.588	1.02
368.953	0.97
369.319	1
369.684	1.07
370.05	1.12
370.415	1.08
370.781	1.27
371.146	1.29
371.511	1.36
371.876	1.22
372.241	1.37
372.607	1.39
372.972	1.52
373.337	1.37
373.702	1.35
374.067	1.51
374.431	-0
374.796	1.68
375.161	1.7
375.526	1.52
375.891	1.47
376.255	1.75
376.62	1.58
376.985	1.37
377.349	1.32
377.714	1.13
378.078	1.07
378.443	0.92
378.807	0.83
379.172	0.75
379.536	0.69
379.9	0.65
380.264	0.58
380.629	0.59
380.993	0.57
381.357	0.51
381.721	0.47
382.085	0.47
382.449	0.45
382.813	0.41
383.177	0.38
383.541	0.38
383.905	0.37
384.268	0.37
384.632	0.36
384.996	0.35
385.359	0.35
385.723	0.33
386.087	0.33
386.45	0.33
386.814	0.33
387.177	0.31
387.541	0.33
387.904	0.31
388.267	0.31
388.631	0.31
388.994	0.32
389.357	0.31
389.72	0.31
390.083	0.32
390.446	0.32
390.809	0.31
391.172	0.3
391.535	0.33
391.898	0.32
392.261	0.3
392.624	0.29
392.987	0.31
393.35	0.32
393.712	0.3
394.075	0.31
394.437	0.31
394.8	0.31
395.163	0.34
395.525	0.33
395.888	0.32
396.25	0.32
396.612	0.3
396.975	0.31
397.337	0.31
397.699	0.32
398.061	0.29
398.424	0.32
398.786	0.3
399.148	0.32
399.51	0.3
399.872	0.31
400.234	0.29
400.596	0.29
400.957	0.3
401.319	0.31
401.681	0.33
402.043	0.3
402.404	0.31
402.766	0.32
403.128	0.32
403.489	0.32
403.851	0.31
404.212	0.29
404.574	0.31
404.935	0.33
405.296	0.32
405.658	0.33
406.019	0.32
406.38	0.31
406.741	0.32
407.103	0.31
407.464	0.32
407.825	0.32
408.186	0.32
408.547	0.33
408.908	0.32
409.268	0.31
409.629	0.31
409.99	0.31
410.351	0.32
410.712	0.34
411.072	0.34
411.433	0.32
411.793	0.32
412.154	0.32
412.515	0.34
412.875	0.33
413.235	0.33
413.596	0.34
413.956	0.33
414.316	0.34
414.677	0.34
415.037	0.33
415.397	0.31
415.757	0.31
416.117	0.32
416.477	0.33
416.837	0.34
417.197	0.34
417.557	0.34
417.917	0.35
418.277	0.34
418.637	0.35
418.996	0.34
419.356	0.35
419.716	0.35
420.075	0.34
420.435	0.34
420.794	0.31
421.154	0.34
421.513	0.32
421.873	0.33
422.232	0.35
422.591	0.33
422.95	0.34
423.31	0.33
423.669	0.33
424.028	0.37
424.387	0.36
424.746	0.34
425.105	0.36
425.464	0.36
425.823	0.34
426.182	0.36
426.541	0.36
426.899	0.36
427.258	0.35
427.617	0.37
427.976	0.39
428.334	0.36
428.693	0.37
429.051	0.35
429.41	0.36
429.768	0.32
430.127	0.35
430.485	0.34
430.843	0.34
431.202	0.35
431.56	0.36
431.918	0.37
432.276	0.35
432.634	0.33
432.992	0.36
433.35	0.35
433.708	0.36
434.066	0.35
434.424	0.34
434.782	0.33
435.14	0.36
435.497	0.38
435.855	0.37
436.213	0.36
436.57	0.35
436.928	0.36
437.285	0.35
437.643	0.36
438	0.32
438.358	0.37
438.715	0.38
439.072	0.36
439.43	0.36
439.787	0.38
440.144	0.36
440.501	0.38
440.858	0.35
441.215	0.37
441.572	0.38
441.929	0.37
442.286	0.35
442.643	0.37
443	0.37
443.357	0.37
443.714	0.37
444.07	0.39
444.427	0.36
444.783	0.38
445.14	0.38
445.497	0.38
445.853	0.35
446.209	0.36
446.566	0.36
446.922	0.37
447.279	0.35
447.635	0.37
447.991	0.36
448.347	0.37
448.703	0.35
449.059	0.37
449.415	0.37
449.771	0.36
450.127	0.34
450.483	0.37
450.839	0.38
451.195	0.38
451.551	0.36
451.906	0.38
452.262	0.39
452.618	0.37
452.973	0.39
453.329	0.37
453.685	0.36
454.04	0.38
454.395	0.37
454.751	0.37
455.106	0.36
455.461	0.35
455.817	0.37
456.172	0.35
456.527	0.38
456.882	0.37
457.237	0.37
457.592	0.35
457.947	0.36
458.302	0.41
458.657	0.39
459.012	0.36
459.367	0.36
459.721	0.36
460.076	0.36
460.431	0.37
460.785	0.37
461.14	0.38
461.495	0.38
461.849	0.37
462.204	0.38
462.558	0.38
462.912	0.41
463.267	0.39
463.621	0.39
463.975	0.36
464.329	0.37
464.683	0.35
465.038	0.37
465.392	0.36
465.746	0.37
466.1	0.37
466.454	0.38
466.807	0.39
467.161	0.37
467.515	0.36
467.869	0.39
468.222	0.35
468.576	0.37
468.93	0.39
469.283	0.38
469.637	0.39
469.99	0.4
470.344	0.37
470.697	0.38
471.05	0.41
471.404	0.38
471.757	0.39
472.11	0.37
472.463	0.4
472.816	0.41
473.169	0.37
473.522	0.39
473.875	0.38
474.228	0.37
474.581	0.38
474.934	0.39
475.287	0.39
475.64	0.37
475.992	0.38
476.345	0.37
476.698	0.38
477.05	0.39
477.403	0.39
477.755	0.38
478.108	0.39
478.46	0.36
478.812	0.39
479.165	0.38
479.517	0.38
479.869	0.38
480.221	0.37
480.574	0.38
480.926	0.39
481.278	0.39
481.63	0.39
481.982	0.4
482.333	0.38
482.685	0.39
483.037	0.4
483.389	0.41
483.741	0.38
484.092	0.37
484.444	0.4
484.796	0.4
485.147	0.38
485.499	0.38
485.85	0.36
486.201	0.39
486.553	0.38
486.904	0.36
487.255	0.36
487.607	0.37
487.958	0.38
488.309	0.38
488.66	0.38
489.011	0.39
489.362	0.39
489.713	0.38
490.064	0.39
490.415	0.37
490.765	0.38
491.116	0.4
491.467	0.39
491.818	0.38
492.168	0.41
492.519	0.37
492.869	0.39
493.22	0.4
493.57	0.4
493.921	0.39
494.271	0.39
494.621	0.38
494.972	0.39
495.322	0.4
495.672	0.39
496.022	0.37
496.372	0.39
496.722	0.37
497.072	0.39
497.422	0.39
497.772	0.35
498.122	0.37
498.472	0.38
498.822	0.39
499.171	0.39
499.521	0.38
499.871	0.38
500.22	0.38
500.57	0.4
500.919	0.4
501.269	0.39
501.618	0.39
501.967	0.38
502.317	0.39
502.666	0.38
503.015	0.38
503.364	0.38
503.713	0.36
504.063	0.38
504.412	0.37
504.761	0.37
505.11	0.38
505.458	0.38
505.807	0.38
506.156	0.38
506.505	0.38
506.854	0.38
507.202	0.37
507.551	0.38
507.899	0.4
508.248	0.39
508.596	0.38
508.945	0.38
509.293	0.37
509.642	0.38
509.99	0.38
510.338	0.4
510.686	0.39
511.034	0.37
511.383	0.38
511.731	0.37
512.079	0.38
512.427	0.38
512.775	0.38
513.122	0.37
513.47	0.38
513.818	0.42
514.166	0.41
514.513	0.41
514.861	0.4
515.209	0.37
515.556	0.39
515.904	0.38
516.251	0.39
516.599	0.37
516.946	0.36
517.293	0.54
517.641	0.39
517.988	0.35
518.335	0.38
518.682	0.4
519.029	0.38
519.376	0.37
519.723	0.4
520.07	0.4
520.417	0.38
520.764	0.39
521.111	0.39
521.458	0.4
521.804	0.38
522.151	0.39
522.498	0.38
522.844	0.38
523.191	0.38
523.537	0.39
523.884	0.38
524.23	0.38
524.576	0.4
524.923	0.41
525.269	0.38
525.615	0.4
525.961	0.41
526.307	0.4
526.653	0.41
526.999	0.38
527.345	0.4
527.691	0.39
528.037	0.39
528.383	0.39
528.729	0.38
529.075	0.39
529.42	0.4
529.766	0.38
530.112	0.39
530.457	0.4
530.803	0.4
531.148	0.41
531.493	0.4
531.839	0.42
532.184	0.4
532.529	0.42
532.875	0.38
533.22	0.39
533.565	0.39
533.91	0.38
534.255	0.39
534.6	0.38
534.945	0.4
535.29	0.39
535.635	0.43
535.98	0.41
536.324	0.42
536.669	0.4
537.014	0.41
537.358	0.39
537.703	0.4
538.047	0.4
538.392	0.38
538.736	0.4
539.081	0.4
539.425	0.38
539.769	0.41
540.113	0.41
540.458	0.4
540.802	0.4
541.146	0.42
541.49	0.39
541.834	0.4
542.178	0.39
542.522	0.39
542.866	0.43
543.209	0.39
543.553	0.4
543.897	0.41
544.241	0.38
544.584	0.4
544.928	0.4
545.271	0.42
545.615	0.41
545.958	0.37
546.302	0.38
546.645	0.39
546.988	0.36
547.331	0.37
547.675	0.38
548.018	0.38
548.361	0.38
548.704	0.38
549.047	0.39
549.39	0.42
549.733	0.42
550.076	0.41
550.418	0.38
550.761	0.41
551.104	0.41
551.447	0.39
551.789	0.38
552.132	0.37
552.474	0.39
552.817	0.42
553.159	0.41
553.502	0.38
553.844	0.39
554.186	0.38
554.528	0.39
554.871	0.39
555.213	0.42
555.555	0.38
555.897	0.38
556.239	0.4
556.581	0.39
556.923	0.42
557.265	0.41
557.606	0.43
557.948	0.43
558.29	0.44
558.632	0.45
558.973	0.43
559.315	0.39
559.656	0.4
559.998	0.39
560.339	0.4
560.68	0.43
561.022	0.43
561.363	0.42
561.704	0.4
562.046	0.38
562.387	0.4
562.728	0.39
563.069	0.39
563.41	0.4
563.751	0.4
564.092	0.4
564.432	0.4
564.773	0.41
565.114	0.43
565.455	0.42
565.795	0.43
566.136	0.42
566.477	0.42
566.817	0.45
567.157	0.43
567.498	0.43
567.838	0.43
568.179	0.42
568.519	0.44
568.859	0.44
569.199	0.46
569.539	0.43
569.879	0.43
570.219	0.38
570.559	0.41
570.899	0.43
571.239	0.44
571.579	0.42
571.919	0.42
572.259	0.43
572.598	0.44
572.938	0.43
573.278	0.36
573.617	0.39
573.957	0.41
574.296	0.43
574.635	0.41
574.975	0.43
575.314	0.47
575.653	0.48
575.993	0.44
576.332	0.39
576.671	0.37
577.01	0.39
577.349	0.4
577.688	0.38
578.027	0.36
578.366	0.39
578.704	0.49
579.043	0.51
579.382	0.48
579.721	0.42
580.059	0.38
580.398	0.36
580.736	0.36
581.075	0.33
581.413	0.34
581.752	0.36
582.09	0.39
582.428	0.47
582.766	0.47
583.105	0.46
583.443	0.42
583.781	0.39
584.119	0.37
584.457	0.39
584.795	0.41
585.133	0.44
585.47	0.44
585.808	0.43
586.146	0.41
586.484	0.39
586.821	0.36
587.159	0.37
587.496	0.39
587.834	0.41
588.171	0.39
588.509	0.39
588.846	0.38
589.183	0.41
589.521	0.4
589.858	0.41
590.195	0.45
590.532	0.47
590.869	0.49
591.206	0.45
591.543	0.41
591.88	0.36
592.217	0.35
592.554	0.37
592.89	0.4
593.227	0.4
593.564	0.39
593.9	0.36
594.237	0.39
594.573	0.42
594.91	0.43
595.246	0.47
595.583	0.44
595.919	0.42
596.255	0.45
596.592	0.48
596.928	0.45
597.264	0.44
597.6	0.45
597.936	0.45
598.272	0.39
598.608	0.38
598.944	0.38
599.279	0.37
599.615	0.39
599.951	0.37
600.287	0.35
600.622	0.38
600.958	0.41
601.293	0.46
601.629	0.46
601.964	0.42
602.3	0.37
602.635	0.41
602.97	0.42
603.305	0.45
603.641	0.43
603.976	0.44
604.311	0.41
604.646	0.43
604.981	0.45
605.316	0.44
605.651	0.41
605.986	0.37
606.32	0.38
606.655	0.37
606.99	0.35
607.324	0.38
607.659	0.4
607.993	0.4
608.328	0.36
608.662	0.38
608.997	0.4
609.331	0.41
609.665	0.42
610	0.4
610.334	0.4
610.668	0.43
611.002	0.45
611.336	0.41
611.67	0.4
612.004	0.41
612.338	0.44
612.672	0.47
613.005	0.43
613.339	0.41
613.673	0.36
614.006	0.34
614.34	0.38
614.674	0.38
615.007	0.38
615.341	0.37
615.674	0.37
616.007	0.4
616.341	0.4
616.674	0.38
617.007	0.35
617.34	0.4
617.673	0.45
618.006	0.47
618.339	0.37
618.672	0.35
619.005	0.37
619.338	0.4
619.671	0.48
620.003	0.47
620.336	0.42
620.669	0.38
621.001	0.39
621.334	0.4
621.666	0.39
621.999	0.39
622.331	0.46
622.663	0.4
622.996	0.37
623.328	0.39
623.66	0.39
623.992	0.39
624.324	0.39
624.656	0.41
624.988	0.44
625.32	0.43
625.652	0.36
625.984	0.33
626.316	0.35
626.647	0.38
626.979	0.43
627.311	0.44
627.642	0.43
627.974	0.38
628.305	0.37
628.637	0.38
628.968	0.43
629.299	0.41
629.631	0.34
629.962	0.34
630.293	0.39
630.624	0.35
630.955	0.37
631.286	0.37
631.617	0.39
631.948	0.4
632.279	0.4
632.61	0.39
632.941	0.43
633.271	0.38
633.602	0.42
633.932	0.44
634.263	0.5
634.594	0.46
634.924	0.42
635.254	0.39
635.585	0.32
635.915	0.4
636.245	0.38
636.576	0.39
636.906	0.42
637.236	0.34
637.566	0.36
637.896	0.37
638.226	0.43
638.556	0.4
638.886	0.38
639.215	0.4
639.545	0.44
639.875	0.37
640.204	0.34
640.534	0.31
640.864	0.41
641.193	0.42
641.522	0.44
641.852	0.38
642.181	0.4
642.511	0.35
642.84	0.42
643.169	0.42
643.498	0.35
643.827	0.37
644.156	0.41
644.485	0.4
644.814	0.43
645.143	0.35
645.472	0.36
645.801	0.4
646.129	0.51
646.458	0.51
646.787	0.47
647.115	0.45
647.444	0.44
647.772	0.38
648.101	0.37
648.429	0.33
648.757	0.38
649.085	0.43
649.414	0.37
649.742	0.38
650.07	0.33
650.398	0.47
650.726	0.44
651.054	0.44
651.382	0.39
651.71	0.37
652.038	0.35
652.365	0.35
652.693	0.23
653.021	0.23
653.348	0.47
653.676	0.66
654.003	0.65
654.331	0.51
654.658	0.25
654.985	0.1
655.313	0.08
655.64	0.13
655.967	0.25
656.294	0.31
656.621	0.3
656.948	0.29
657.275	0.28
657.602	0.31
657.929	0.32
658.256	0.35
658.583	0.42
658.909	0.35
659.236	0.43
659.563	0.43
659.889	0.4
660.216	0.4
660.542	0.44
660.869	0.38
661.195	0.51
661.521	0.5
661.847	0.5
662.174	0.47
662.5	0.37
662.826	0.38
663.152	0.4
663.478	0.48
663.804	0.45
664.13	0.37
664.456	0.39
664.781	0.35
665.107	0.35
665.433	0.4
665.758	0.37
666.084	0.41
666.41	0.43
666.735	0.43
667.06	0.47
667.386	0.46
667.711	0.38
668.036	0.4
668.362	0.41
668.687	0.33
669.012	0.43
669.337	0.48
669.662	0.46
669.987	0.51
670.312	0.51
670.637	0.42
670.961	0.4
671.286	0.39
671.611	0.39
671.935	0.32
672.26	0.36
672.585	0.39
672.909	0.39
673.233	0.38
673.558	0.41
673.882	0.47
674.206	0.4
674.531	0.47
674.855	0.43
675.179	0.41
675.503	0.39
675.827	0.5
676.151	0.47
676.475	0.4
676.799	0.42
677.123	0.44
677.446	0.44
677.77	0.44
678.094	0.38
678.417	0.35
678.741	0.3
679.064	0.43
679.388	0.46
679.711	0.54
680.034	0.44
680.358	0.38
680.681	0.39
681.004	0.29
681.327	0.35
681.65	0.45
681.973	0.47
682.296	0.48
682.619	0.47
682.942	0.42
683.265	0.46
683.587	0.49
683.91	0.4
684.233	0.32
684.555	0.3
684.878	0.36
685.2	0.38
685.523	0.45
685.845	0.44
686.168	0.42
686.49	0.4
686.812	0.38
687.134	0.47
687.456	0.46
687.778	0.55
688.1	0.43
688.422	0.39
688.744	0.43
689.066	0.45
689.388	0.51
689.71	0.59
690.031	0.43
690.353	0.35
690.675	0.33
690.996	0.42
691.318	0.47
691.639	0.44
691.96	0.37
692.282	0.4
692.603	0.38
692.924	0.44
693.245	0.51
693.566	0.49
693.887	0.4
694.208	0.29
694.529	0.4
694.85	0.53
695.171	0.54
695.492	0.53
695.813	0.47
696.133	0.35
696.454	0.32
696.775	0.37
697.095	0.37
697.416	0.39
697.736	0.3
698.056	0.42
698.377	0.39
698.697	0.37
699.017	0.39
699.337	0.33
699.657	0.37
699.977	0.37
700.297	0.54
700.617	0.54
700.937	0.6
701.257	0.41
701.577	0.38
701.897	0.29
702.216	0.41
702.536	0.54
702.855	0.45
703.175	0.36
703.494	0.45
703.814	0.29
704.133	0.39
704.452	0.52
704.772	0.54
705.091	0.57
705.41	0.5
705.729	0.51
706.048	0.4
706.367	0.41
706.686	0.37
707.005	0.38
707.324	0.35
707.642	0.33
707.961	0.35
708.28	0.45
708.598	0.52
708.917	0.51
709.235	0.34
709.554	0.32
709.872	0.37
710.191	0.42
710.509	0.48
710.827	0.54
711.145	0.51
711.463	0.5
711.781	0.47
712.099	0.38
712.417	0.42
712.735	0.42
713.053	0.37
713.371	0.41
713.689	0.39
714.006	0.33
714.324	0.24
714.642	0.34
714.959	0.42
715.277	0.41
715.594	0.49
715.911	0.43
716.229	0.48
716.546	0.47
716.863	0.48
717.18	0.45
717.497	0.34
717.814	0.35
718.131	0.3
718.448	0.32
718.765	0.37
719.082	0.46
719.399	0.43
719.715	0.39
720.032	0.41
720.349	0.46
720.665	0.43
720.982	0.38
721.298	0.45
721.615	0.46
721.931	0.37
722.247	0.44
722.563	0.43
722.88	0.44
723.196	0.56
723.512	0.55
723.828	0.52
724.144	0.44
724.46	0.39
724.775	0.45
725.091	0.5
725.407	0.41
725.723	0.55
726.038	0.57
726.354	0.49
726.669	0.44
726.985	0.34
727.3	0.43
727.616	0.4
727.931	0.38
728.246	0.38
728.561	0.44
728.876	0.53
729.192	0.58
729.507	0.53
729.822	0.45
730.136	0.37
730.451	0.4
730.766	0.44
731.081	0.41
731.396	0.37
731.71	0.4
732.025	0.41
732.339	0.44
732.654	0.42
732.968	0.42
733.283	0.38
733.597	0.47
733.911	0.44
734.225	0.41
734.54	0.36
734.854	0.46
735.168	0.41
735.482	0.42
735.796	0.42
736.11	0.33
736.423	0.38
736.737	0.42
737.051	0.51
737.364	0.56
737.678	0.48
737.992	0.4
738.305	0.32
738.619	0.29
738.932	0.26
739.245	0.3
739.559	0.37
739.872	0.35
740.185	0.57
740.498	0.55
740.811	0.53
741.124	0.43
741.437	0.37
741.75	0.27
742.063	0.27
742.376	0.38
742.688	0.41
743.001	0.37
743.314	0.38
743.626	0.51
743.939	0.56
744.251	0.53
744.564	0.37
744.876	0.3
745.188	0.58
745.5	0.46
745.813	0.41
746.125	0.34
746.437	0.32
746.749	0.48
747.061	0.41
747.373	0.49
747.684	0.49
747.996	0.44
748.308	0.51
748.62	0.37
748.931	0.32
749.243	0.34
749.554	0.47
749.866	0.5
750.177	0.39
750.489	0.53
750.8	0.35
751.111	0.39
751.422	0.4
751.733	0.63
752.044	0.45
752.355	0.33
752.666	0.26
752.977	0.33
753.288	0.42
753.599	0.43
753.91	0.42
754.22	0.51
754.531	0.49
754.842	0.46
755.152	0.49
755.463	0.6
755.773	0.5
756.083	0.4
756.394	0.38
756.704	0.28
757.014	0.25
757.324	0.34
757.634	0.3
757.944	0.44
758.254	0.38
758.564	0.4
758.874	0.45
759.184	0.47
759.493	0.39
759.803	0.33
760.113	0.33
760.422	0.31
760.732	0.34
761.041	0.34
761.351	0.37
761.66	0.45
761.969	0.46
762.279	0.38
762.588	0.42
762.897	0.46
763.206	0.44
763.515	0.36
763.824	0.35
764.133	0.29
764.442	0.31
764.75	0.17
765.059	0.35
765.368	0.31
765.676	0.26
765.985	0.45
766.293	0.5
766.602	0.49
766.91	0.46
767.219	0.44
767.527	0.45
767.835	0.33
768.143	0.34
768.451	0.39
768.76	0.34
769.068	0.35
769.375	0.52
769.683	0.25
769.991	0.3
770.299	0.25
770.607	0.26
770.914	0.3
771.222	0.33
771.53	0.32
771.837	0.4
772.144	0.34
772.452	0.21
772.759	0.23
773.066	0.2
773.374	0.27
773.681	0.11
773.988	0.31
774.295	0.31
774.602	0.15
774.909	0.24
775.216	0.3
775.523	0.55
775.829	0.39
776.136	0.22
776.443	0.28
776.749	0.43
777.056	0.93
777.362	0.46
777.669	0.33
777.975	0.25
778.281	0.39
778.588	0.14
778.894	0.39
779.2	0.52
779.506	0.37
779.812	0.53
780.118	0.4
780.424	0.25
780.73	0.2
781.036	0.28
781.341	0.1
781.647	0.31
781.953	0.34
782.258	0.23
782.564	0.22
782.869	0.24
783.175	0.14
783.48	0.12
783.785	0.19
784.091	0.38
784.396	0.26
784.701	0.39
785.006	0.43
785.311	0.22
785.616	0.19
785.921	0.28
786.226	0.15
786.53	0.29
786.835	0.33
787.14	0.23
787.444	0.22
787.749	0.16
788.053	0.01
788.358	0.23
788.662	0.33
788.967	0.11
789.271	0.27
789.575	0.2
789.879	0.12
790.183	0.18
790.487	-0
790.791	0.02
791.095	0.14
791.399	0.18
791.703	0.22
792.007	0.18
792.31	0.27
792.614	0.24
792.918	0.26
793.221	0.18
793.525	0.11
793.828	0.17
794.131	0.15
794.435	-0
794.738	-0.13
795.041	0.01
795.344	0.57
795.647	0.17
795.95	0.6
796.253	0.39
796.556	0.16
796.859	0.12
797.162	0.35
797.465	0.07
797.767	-0.07
798.07	0.24
798.372	0.21
798.675	0.36
798.977	0.15
799.28	0.22
799.582	0.08
799.884	-0
800.186	1.08
800.489	-0.05
800.791	-0
801.093	-1
801.395	-0.05
801.697	-0.04
801.999	-0.21
802.3	0.35
802.602	0.13
802.904	0.12
803.205	0.06
803.507	-0.02
803.809	-0.5
804.11	0.11
804.411	0.08
804.713	0.4
805.014	0.01
805.315	0.29
805.616	0.27
805.918	-0.04
806.219	-0.13
806.52	0.46
806.821	0.22
807.121	-0
807.422	0.38
807.723	-0
808.024	0.31
808.324	-0.32
808.625	-0.84
808.926	0.01
809.226	-0
809.526	-0
809.827	-0.63
810.127	0.33
810.427	-0.1
810.728	-0.79
811.028	-0
811.328	-0.51
811.628	0.18
811.928	0.07
812.228	-0.09
812.527	-0.27
812.827	0.35
813.127	-0.03
813.427	-0
813.726	-0.38
814.026	0.1
814.325	0.34
814.625	-0.14
814.924	-0.8
815.223	0.14
815.523	-0.86
815.822	-1.13
816.121	-0
816.42	0.13
816.719	0.2
817.018	-0
817.317	1.08
817.616	0.48
817.915	0.09
818.214	-0
818.512	0.05
818.811	-0
819.109	-0
819.408	0.31
819.706	-0.46
820.005	1.43
820.303	0.18
820.601	0.2
820.9	0.02
821.198	-0.36
821.496	0.04
821.794	-2
822.092	-0.11
822.39	-0
822.688	0.11
822.985	-0.39
823.283	-0
823.581	0.06
823.879	0.35
824.176	0.19
824.474	0.24
824.771	-0
825.068	0.21
825.366	-0.09
825.663	-0
825.96	-0.39
826.257	0.03
826.555	0.08
826.852	-0
827.149	-0.04
827.446	0.15
827.742	0.14
828.039	0.41
828.336	0.31
828.633	-0.07
828.929	-0.1
829.226	-0.81
829.522	-0
829.819	0.07
830.115	0.11
830.412	0.27
830.708	-0
831.004	0.33
831.3	0.36
831.596	0.25
831.892	0.07
832.188	0.75
832.484	0.53
832.78	-0
833.076	0
833.372	0.55
833.668	-0
833.963	0.2
834.259	-0
834.554	-0
834.85	0.47
835.145	-0.09
835.441	0.17
835.736	0.15
836.031	-0.16
836.326	-0.89
836.621	0.05
836.916	0.28
837.211	0.11
837.506	-0.81
837.801	0.23
838.096	-0.27
838.391	0.16
838.685	-0
838.98	-0
839.275	-1.75
839.569	-0
839.864	0.21
840.158	-0
840.452	0.06
840.747	0.01
841.041	0.07
841.335	-0
841.629	-0
841.923	-0.33
842.217	1.07
842.511	0.02
842.805	2.52
843.099	0.29
843.393	0.03
843.686	-0.67
843.98	0.68
844.273	-0
844.567	-0
844.86	-0
845.154	0.26
845.447	-0
845.74	0.47
846.034	-0.02
846.327	0.17
846.62	0.48
846.913	-0
847.206	0.27
847.499	0.09
847.792	0.36
848.084	-0.05
848.377	-0.08
848.67	0.4
848.962	0.28
849.255	-0
849.548	0.46
849.84	-0.05
850.132	-0
850.425	-0
850.717	-0
851.009	0.55
851.301	1.81
851.593	-0
851.885	-0
852.177	0.21
852.469	0.15
852.761	-0.85
853.053	0.21
853.345	-0.09
853.636	-0
853.928	-0
854.219	-0
854.511	0.09
854.802	-0
855.094	1.48
855.385	1.04
855.676	-0.26
855.967	-0
856.259	0.15
856.55	-0.19
856.841	-0
857.132	0.21
857.423	-0.37
857.713	-0.28
858.004	0.23
858.295	0.16
858.585	-0
858.876	-0
859.167	-0.13
859.457	-0.33
859.747	0.39
860.038	-0.72
860.328	0.58
860.618	-0.05
860.909	-0.75
861.199	0.21
861.489	-0.03
861.779	-0.27
862.069	-0
862.358	-0.01
862.648	0.02
862.938	0.15
863.228	-0.02
863.517	0.17
863.807	1.38
864.096	-1.73
864.386	-0
864.675	-0.27
864.965	-0.21
865.254	0.63
865.543	0.22
865.832	0.87
866.121	0.2
866.41	1.5
866.699	-0.09
866.988	-0
867.277	-0.25
867.566	0.36
867.855	0.82
868.143	-0.29
868.432	-0.01
868.72	1.15
869.009	0.08
869.297	-0
869.586	-0.09
869.874	-0
870.162	0.38
870.45	-0.21
870.739	-0.94
871.027	-0.71
871.315	-0
871.603	-0
871.89	1.14
872.178	0.53
872.466	-0
872.754	-1.09
873.041	0.01
873.329	0.19
873.616	0.3
873.904	0.17
874.191	-0
874.479	1
874.766	0.86
875.053	0.4
