Data from VictorAnthra_Absorbance__0__00020.txt Node

Date: Thu Oct 10 15:49:12 EDT 2024
User: earladmin
Spectrometer: FLCH01037
Trigger mode: 0
Integration Time (sec): 1.000000E-1
Scans to average: 5
Electric dark correction enabled: true
Nonlinearity correction enabled: false
Boxcar width: 2
XAxis mode: Wavelengths
Number of Pixels in Spectrum: 2048
>>>>>Begin Spectral Data<<<<<
178.246	0.11
178.631	0.75
179.016	-0
179.401	0.1
179.785	0.19
180.17	-0.52
180.554	-0
180.939	0.01
181.323	0.08
181.708	-0.07
182.092	-0
182.477	-0.02
182.861	0.72
183.245	-0.32
183.63	0.12
184.014	-0
184.398	-0.23
184.782	-0.12
185.167	0.03
185.551	-0.22
185.935	0.27
186.319	-0.01
186.703	-0.08
187.087	0.54
187.471	-0
187.855	-0.42
188.238	-0.54
188.622	-0
189.006	0.29
189.39	-0.17
189.774	0.08
190.157	-0
190.541	0.01
190.925	-0.03
191.308	0.62
191.692	0.58
192.075	-0
192.459	-0.8
192.842	-0
193.226	-0
193.609	-0.22
193.992	0.34
194.376	0.17
194.759	-0
195.142	0.23
195.525	0.1
195.909	0.61
196.292	0.72
196.675	0.42
197.058	0.45
197.441	-0
197.824	0.46
198.207	-0
198.59	-0.23
198.973	0.26
199.356	-0
199.738	-0
200.121	0.51
200.504	-0
200.887	-0
201.269	0.23
201.652	-0
202.035	-0
202.417	1.19
202.8	-0.47
203.182	0.1
203.565	1.16
203.947	-0
204.329	-0
204.712	-0.24
205.094	-0
205.476	0.4
205.859	-0.03
206.241	1.36
206.623	-0
207.005	-0
207.387	0.23
207.769	-0.34
208.151	-0
208.533	-0
208.915	0.14
209.297	-0
209.679	0.1
210.061	0.59
210.443	2.23
210.825	-0
211.206	-0.12
211.588	-0.94
211.97	-0
212.351	-0
212.733	-0
213.115	-0
213.496	0.29
213.878	0.57
214.259	-0.13
214.641	0.33
215.022	-0
215.403	0.67
215.785	1.32
216.166	-0.65
216.547	-0
216.928	-0
217.31	-0
217.691	0.56
218.072	-0.15
218.453	-0
218.834	0.07
219.215	-0
219.596	-0.02
219.977	0.15
220.358	-0.13
220.739	1.19
221.119	0.35
221.5	-0
221.881	0.39
222.262	0.34
222.642	0.6
223.023	-0
223.403	-0.34
223.784	0.28
224.165	-0
224.545	-0.01
224.926	-0
225.306	0.01
225.686	0.47
226.067	-0.04
226.447	0.61
226.827	0.58
227.207	0.38
227.588	-0
227.968	-0
228.348	1
228.728	0.62
229.108	0.26
229.488	-0
229.868	-0.74
230.248	-0
230.628	0.75
231.008	-0
231.388	-0
231.767	0.72
232.147	-0.34
232.527	0.52
232.907	0.57
233.286	0.95
233.666	-0
234.046	0.34
234.425	-0
234.805	0.44
235.184	-0
235.564	0.23
235.943	0.2
236.322	0.24
236.702	0.09
237.081	0.26
237.46	-0
237.839	0.12
238.219	0.9
238.598	0.41
238.977	0.42
239.356	-0
239.735	0.09
240.114	-0
240.493	0.31
240.872	-0
241.251	0.52
241.629	0.68
242.008	0.76
242.387	0.5
242.766	0.55
243.145	0.26
243.523	0.67
243.902	0.58
244.28	-0
244.659	-0
245.037	0.7
245.416	-0
245.794	0.95
246.173	-0
246.551	0.5
246.93	0.41
247.308	0.72
247.686	-0
248.064	0.91
248.442	-0
248.821	-0
249.199	-0
249.577	1.24
249.955	0.7
250.333	0.69
250.711	-0
251.089	0.87
251.467	-0
251.844	0.66
252.222	0.36
252.6	0.81
252.978	1.66
253.356	0.71
253.733	-0
254.111	-0
254.488	0.9
254.866	-0
255.243	2.19
255.621	1.68
255.998	0.56
256.376	1.18
256.753	1.44
257.13	1.47
257.508	0.54
257.885	1.11
258.262	0.41
258.639	0.24
259.017	0.12
259.394	-0.01
259.771	0.03
260.148	-0.11
260.525	-0.16
260.902	-0.25
261.279	-0.26
261.656	-0.26
262.032	-0.17
262.409	-0.3
262.786	-0.32
263.163	-0.29
263.539	-0.27
263.916	-0.25
264.293	-0.32
264.669	-0.3
265.046	-0.3
265.422	-0.33
265.799	-0.32
266.175	-0.35
266.552	-0.28
266.928	-0.27
267.304	-0.27
267.681	-0.24
268.057	-0.31
268.433	-0.28
268.809	-0.25
269.185	-0.24
269.561	-0.23
269.937	-0.23
270.313	-0.2
270.689	-0.22
271.065	-0.23
271.441	-0.22
271.817	-0.23
272.193	-0.18
272.569	-0.22
272.945	-0.19
273.32	-0.16
273.696	-0.16
274.072	-0.14
274.447	-0.15
274.823	-0.14
275.198	-0.12
275.574	-0.14
275.949	-0.1
276.325	-0.09
276.7	-0.1
277.075	-0.08
277.451	-0.07
277.826	-0.07
278.201	-0.05
278.576	-0.05
278.951	-0.05
279.326	-0.05
279.702	-0.03
280.077	0
280.452	-0.02
280.827	-0.02
281.201	0
281.576	0.02
281.951	0.02
282.326	0.03
282.701	0.01
283.075	0.06
283.45	0.05
283.825	0.05
284.199	0.07
284.574	0.07
284.949	0.05
285.323	0.07
285.697	0.08
286.072	0.1
286.446	0.11
286.821	0.11
287.195	0.14
287.569	0.14
287.943	0.12
288.318	0.13
288.692	0.14
289.066	0.17
289.44	0.17
289.814	0.18
290.188	0.17
290.562	0.19
290.936	0.19
291.31	0.24
291.684	0.21
292.057	0.25
292.431	0.21
292.805	0.23
293.179	0.24
293.552	0.24
293.926	0.26
294.299	0.25
294.673	0.24
295.046	0.24
295.42	0.28
295.793	0.26
296.167	0.27
296.54	0.25
296.913	0.28
297.287	0.27
297.66	0.29
298.033	0.29
298.406	0.3
298.779	0.3
299.152	0.3
299.525	0.31
299.898	0.33
300.271	0.32
300.644	0.31
301.017	0.34
301.39	0.36
301.763	0.34
302.136	0.35
302.508	0.37
302.881	0.39
303.254	0.39
303.626	0.39
303.999	0.42
304.371	0.43
304.744	0.43
305.116	0.44
305.489	0.45
305.861	0.48
306.233	0.48
306.606	0.5
306.978	0.49
307.35	0.48
307.722	0.48
308.095	0.53
308.467	0.51
308.839	0.51
309.211	0.5
309.583	0.53
309.955	0.48
310.327	0.52
310.698	0.52
311.07	0.49
311.442	0.54
311.814	0.51
312.185	0.51
312.557	0.55
312.929	0.55
313.3	0.5
313.672	0.55
314.043	0.55
314.415	0.55
314.786	0.55
315.158	0.58
315.529	0.59
315.9	0.59
316.272	0.63
316.643	0.63
317.014	0.64
317.385	0.67
317.756	0.65
318.127	0.68
318.499	0.68
318.87	0.73
319.24	0.75
319.611	0.83
319.982	0.83
320.353	0.86
320.724	0.85
321.095	0.84
321.465	0.89
321.836	0.86
322.207	0.89
322.577	0.92
322.948	0.97
323.318	0.94
323.689	0.88
324.059	0.82
324.43	0.81
324.8	0.85
325.171	0.8
325.541	0.85
325.911	0.88
326.281	0.74
326.651	0.87
327.022	0.77
327.392	0.82
327.762	0.78
328.132	0.73
328.502	0.79
328.872	0.78
329.242	0.78
329.611	0.81
329.981	0.83
330.351	0.87
330.721	0.87
331.09	0.91
331.46	0.88
331.83	0.92
332.199	0.99
332.569	1.07
332.938	1.05
333.308	1.06
333.677	1.15
334.047	0.97
334.416	1.08
334.785	1.13
335.154	1.06
335.524	1.19
335.893	1.36
336.262	1.39
336.631	1.36
337	1.21
337.369	2.06
337.738	1.57
338.107	1.49
338.476	1.52
338.845	1.42
339.214	1.51
339.582	1.86
339.951	1.41
340.32	1.15
340.689	1.35
341.057	1.2
341.426	1.05
341.794	1.11
342.163	1.14
342.531	1
342.9	0.99
343.268	1.08
343.636	0.97
344.005	0.95
344.373	0.99
344.741	1
345.109	0.97
345.477	0.94
345.845	0.92
346.214	1.02
346.582	0.93
346.95	0.99
347.317	0.96
347.685	1.05
348.053	1.04
348.421	1.12
348.789	1.09
349.156	1.19
349.524	1.17
349.892	1.26
350.259	1.49
350.627	1.52
350.995	1.24
351.362	1.38
351.729	1.49
352.097	1.56
352.464	1.35
352.832	1.98
353.199	2.03
353.566	1.33
353.933	2.05
354.3	1.65
354.668	2.03
355.035	1.83
355.402	1.95
355.769	2.52
356.136	1.69
356.503	2.91
356.869	1.99
357.236	1.96
357.603	1.92
357.97	1.76
358.337	1.55
358.703	1.32
359.07	1.42
359.436	1.32
359.803	1.05
360.17	1.03
360.536	1.03
360.902	0.92
361.269	0.91
361.635	0.88
362.001	0.84
362.368	0.89
362.734	0.82
363.1	0.77
363.466	0.76
363.832	0.76
364.198	0.72
364.564	0.75
364.93	0.73
365.296	0.74
365.662	0.8
366.028	0.75
366.394	0.79
366.76	0.79
367.125	0.86
367.491	0.87
367.857	0.88
368.222	0.97
368.588	1.03
368.953	0.99
369.319	1.03
369.684	1.09
370.05	1.14
370.415	1.1
370.781	1.3
371.146	1.29
371.511	1.4
371.876	1.23
372.241	1.41
372.607	1.43
372.972	1.59
373.337	1.41
373.702	1.39
374.067	1.54
374.431	-0
374.796	1.68
375.161	1.72
375.526	1.53
375.891	1.49
376.255	1.71
376.62	1.58
376.985	1.37
377.349	1.31
377.714	1.12
378.078	1.08
378.443	0.93
378.807	0.83
379.172	0.75
379.536	0.69
379.9	0.65
380.264	0.58
380.629	0.6
380.993	0.56
381.357	0.5
381.721	0.47
382.085	0.47
382.449	0.45
382.813	0.41
383.177	0.39
383.541	0.38
383.905	0.37
384.268	0.37
384.632	0.36
384.996	0.35
385.359	0.36
385.723	0.34
386.087	0.33
386.45	0.32
386.814	0.33
387.177	0.31
387.541	0.32
387.904	0.31
388.267	0.31
388.631	0.31
388.994	0.33
389.357	0.32
389.72	0.32
390.083	0.32
390.446	0.32
390.809	0.31
391.172	0.29
391.535	0.32
391.898	0.31
392.261	0.3
392.624	0.28
392.987	0.31
393.35	0.32
393.712	0.3
394.075	0.31
394.437	0.31
394.8	0.3
395.163	0.33
395.525	0.33
395.888	0.32
396.25	0.32
396.612	0.3
396.975	0.31
397.337	0.3
397.699	0.31
398.061	0.29
398.424	0.32
398.786	0.3
399.148	0.32
399.51	0.31
399.872	0.31
400.234	0.29
400.596	0.29
400.957	0.3
401.319	0.31
401.681	0.33
402.043	0.3
402.404	0.31
402.766	0.32
403.128	0.32
403.489	0.33
403.851	0.32
404.212	0.3
404.574	0.32
404.935	0.33
405.296	0.32
405.658	0.33
406.019	0.32
406.38	0.31
406.741	0.32
407.103	0.31
407.464	0.32
407.825	0.32
408.186	0.32
408.547	0.33
408.908	0.31
409.268	0.31
409.629	0.32
409.99	0.31
410.351	0.33
410.712	0.35
411.072	0.35
411.433	0.33
411.793	0.33
412.154	0.33
412.515	0.34
412.875	0.33
413.235	0.33
413.596	0.34
413.956	0.33
414.316	0.35
414.677	0.35
415.037	0.33
415.397	0.32
415.757	0.31
416.117	0.32
416.477	0.33
416.837	0.34
417.197	0.34
417.557	0.35
417.917	0.35
418.277	0.34
418.637	0.35
418.996	0.34
419.356	0.35
419.716	0.36
420.075	0.35
420.435	0.34
420.794	0.32
421.154	0.34
421.513	0.33
421.873	0.33
422.232	0.36
422.591	0.33
422.95	0.34
423.31	0.33
423.669	0.33
424.028	0.36
424.387	0.36
424.746	0.34
425.105	0.36
425.464	0.36
425.823	0.34
426.182	0.36
426.541	0.36
426.899	0.36
427.258	0.35
427.617	0.37
427.976	0.39
428.334	0.36
428.693	0.37
429.051	0.36
429.41	0.36
429.768	0.32
430.127	0.35
430.485	0.34
430.843	0.35
431.202	0.35
431.56	0.36
431.918	0.37
432.276	0.35
432.634	0.33
432.992	0.36
433.35	0.35
433.708	0.36
434.066	0.35
434.424	0.34
434.782	0.33
435.14	0.36
435.497	0.37
435.855	0.36
436.213	0.35
436.57	0.35
436.928	0.36
437.285	0.36
437.643	0.37
438	0.33
438.358	0.37
438.715	0.38
439.072	0.36
439.43	0.36
439.787	0.38
440.144	0.36
440.501	0.38
440.858	0.34
441.215	0.36
441.572	0.37
441.929	0.36
442.286	0.35
442.643	0.36
443	0.36
443.357	0.36
443.714	0.36
444.07	0.39
444.427	0.36
444.783	0.38
445.14	0.38
445.497	0.38
445.853	0.35
446.209	0.36
446.566	0.36
446.922	0.36
447.279	0.35
447.635	0.38
447.991	0.36
448.347	0.36
448.703	0.35
449.059	0.36
449.415	0.37
449.771	0.36
450.127	0.35
450.483	0.37
450.839	0.38
451.195	0.37
451.551	0.35
451.906	0.38
452.262	0.38
452.618	0.37
452.973	0.39
453.329	0.37
453.685	0.37
454.04	0.38
454.395	0.36
454.751	0.37
455.106	0.36
455.461	0.35
455.817	0.37
456.172	0.35
456.527	0.38
456.882	0.37
457.237	0.38
457.592	0.35
457.947	0.36
458.302	0.41
458.657	0.39
459.012	0.36
459.367	0.36
459.721	0.37
460.076	0.36
460.431	0.37
460.785	0.37
461.14	0.38
461.495	0.38
461.849	0.37
462.204	0.38
462.558	0.38
462.912	0.4
463.267	0.39
463.621	0.39
463.975	0.36
464.329	0.36
464.683	0.35
465.038	0.36
465.392	0.36
465.746	0.37
466.1	0.37
466.454	0.38
466.807	0.4
467.161	0.37
467.515	0.37
467.869	0.4
468.222	0.36
468.576	0.38
468.93	0.39
469.283	0.38
469.637	0.39
469.99	0.4
470.344	0.37
470.697	0.38
471.05	0.41
471.404	0.38
471.757	0.39
472.11	0.37
472.463	0.4
472.816	0.4
473.169	0.37
473.522	0.39
473.875	0.39
474.228	0.37
474.581	0.38
474.934	0.39
475.287	0.4
475.64	0.38
475.992	0.39
476.345	0.38
476.698	0.38
477.05	0.39
477.403	0.39
477.755	0.39
478.108	0.39
478.46	0.36
478.812	0.39
479.165	0.39
479.517	0.38
479.869	0.39
480.221	0.37
480.574	0.38
480.926	0.39
481.278	0.38
481.63	0.39
481.982	0.39
482.333	0.38
482.685	0.39
483.037	0.4
483.389	0.41
483.741	0.38
484.092	0.37
484.444	0.4
484.796	0.4
485.147	0.38
485.499	0.38
485.85	0.36
486.201	0.39
486.553	0.38
486.904	0.36
487.255	0.37
487.607	0.38
487.958	0.38
488.309	0.39
488.66	0.38
489.011	0.39
489.362	0.39
489.713	0.38
490.064	0.39
490.415	0.37
490.765	0.38
491.116	0.4
491.467	0.39
491.818	0.38
492.168	0.41
492.519	0.37
492.869	0.39
493.22	0.41
493.57	0.4
493.921	0.4
494.271	0.4
494.621	0.38
494.972	0.39
495.322	0.39
495.672	0.38
496.022	0.37
496.372	0.38
496.722	0.37
497.072	0.4
497.422	0.39
497.772	0.36
498.122	0.37
498.472	0.38
498.822	0.39
499.171	0.39
499.521	0.38
499.871	0.38
500.22	0.37
500.57	0.39
500.919	0.4
501.269	0.4
501.618	0.4
501.967	0.38
502.317	0.39
502.666	0.38
503.015	0.38
503.364	0.38
503.713	0.36
504.063	0.38
504.412	0.37
504.761	0.37
505.11	0.39
505.458	0.39
505.807	0.39
506.156	0.39
506.505	0.38
506.854	0.38
507.202	0.38
507.551	0.38
507.899	0.4
508.248	0.39
508.596	0.39
508.945	0.38
509.293	0.37
509.642	0.38
509.99	0.38
510.338	0.4
510.686	0.39
511.034	0.37
511.383	0.38
511.731	0.36
512.079	0.38
512.427	0.38
512.775	0.39
513.122	0.38
513.47	0.39
513.818	0.43
514.166	0.42
514.513	0.42
514.861	0.4
515.209	0.37
515.556	0.39
515.904	0.38
516.251	0.39
516.599	0.37
516.946	0.36
517.293	0.54
517.641	0.38
517.988	0.35
518.335	0.38
518.682	0.4
519.029	0.39
519.376	0.38
519.723	0.4
520.07	0.4
520.417	0.39
520.764	0.39
521.111	0.4
521.458	0.4
521.804	0.39
522.151	0.4
522.498	0.4
522.844	0.39
523.191	0.4
523.537	0.4
523.884	0.39
524.23	0.38
524.576	0.4
524.923	0.41
525.269	0.38
525.615	0.4
525.961	0.41
526.307	0.41
526.653	0.41
526.999	0.38
527.345	0.41
527.691	0.39
528.037	0.4
528.383	0.39
528.729	0.38
529.075	0.39
529.42	0.4
529.766	0.38
530.112	0.4
530.457	0.4
530.803	0.39
531.148	0.41
531.493	0.4
531.839	0.42
532.184	0.4
532.529	0.43
532.875	0.38
533.22	0.39
533.565	0.39
533.91	0.38
534.255	0.38
534.6	0.38
534.945	0.4
535.29	0.39
535.635	0.43
535.98	0.41
536.324	0.42
536.669	0.4
537.014	0.41
537.358	0.39
537.703	0.4
538.047	0.4
538.392	0.39
538.736	0.4
539.081	0.4
539.425	0.39
539.769	0.41
540.113	0.41
540.458	0.4
540.802	0.4
541.146	0.42
541.49	0.39
541.834	0.4
542.178	0.39
542.522	0.39
542.866	0.43
543.209	0.38
543.553	0.4
543.897	0.41
544.241	0.38
544.584	0.4
544.928	0.4
545.271	0.42
545.615	0.41
545.958	0.37
546.302	0.38
546.645	0.39
546.988	0.37
547.331	0.37
547.675	0.38
548.018	0.38
548.361	0.39
548.704	0.39
549.047	0.4
549.39	0.43
549.733	0.42
550.076	0.41
550.418	0.39
550.761	0.41
551.104	0.41
551.447	0.39
551.789	0.39
552.132	0.37
552.474	0.4
552.817	0.44
553.159	0.42
553.502	0.39
553.844	0.4
554.186	0.39
554.528	0.4
554.871	0.41
555.213	0.43
555.555	0.39
555.897	0.39
556.239	0.41
556.581	0.39
556.923	0.43
557.265	0.42
557.606	0.43
557.948	0.43
558.29	0.44
558.632	0.44
558.973	0.43
559.315	0.4
559.656	0.41
559.998	0.4
560.339	0.41
560.68	0.44
561.022	0.43
561.363	0.42
561.704	0.4
562.046	0.38
562.387	0.4
562.728	0.39
563.069	0.39
563.41	0.4
563.751	0.4
564.092	0.4
564.432	0.4
564.773	0.41
565.114	0.42
565.455	0.41
565.795	0.42
566.136	0.42
566.477	0.42
566.817	0.45
567.157	0.43
567.498	0.43
567.838	0.42
568.179	0.42
568.519	0.44
568.859	0.44
569.199	0.46
569.539	0.42
569.879	0.42
570.219	0.37
570.559	0.41
570.899	0.43
571.239	0.44
571.579	0.43
571.919	0.43
572.259	0.43
572.598	0.44
572.938	0.43
573.278	0.36
573.617	0.39
573.957	0.41
574.296	0.43
574.635	0.41
574.975	0.44
575.314	0.48
575.653	0.49
575.993	0.45
576.332	0.4
576.671	0.38
577.01	0.39
577.349	0.4
577.688	0.38
578.027	0.37
578.366	0.39
578.704	0.49
579.043	0.52
579.382	0.49
579.721	0.43
580.059	0.38
580.398	0.37
580.736	0.36
581.075	0.33
581.413	0.34
581.752	0.36
582.09	0.39
582.428	0.47
582.766	0.47
583.105	0.46
583.443	0.42
583.781	0.39
584.119	0.37
584.457	0.39
584.795	0.41
585.133	0.43
585.47	0.44
585.808	0.43
586.146	0.41
586.484	0.39
586.821	0.36
587.159	0.36
587.496	0.39
587.834	0.41
588.171	0.4
588.509	0.41
588.846	0.39
589.183	0.42
589.521	0.4
589.858	0.41
590.195	0.45
590.532	0.48
590.869	0.49
591.206	0.46
591.543	0.42
591.88	0.36
592.217	0.36
592.554	0.38
592.89	0.41
593.227	0.4
593.564	0.38
593.9	0.35
594.237	0.38
594.573	0.41
594.91	0.42
595.246	0.46
595.583	0.43
595.919	0.41
596.255	0.44
596.592	0.48
596.928	0.45
597.264	0.44
597.6	0.45
597.936	0.45
598.272	0.39
598.608	0.38
598.944	0.37
599.279	0.37
599.615	0.38
599.951	0.37
600.287	0.35
600.622	0.38
600.958	0.42
601.293	0.47
601.629	0.47
601.964	0.43
602.3	0.38
602.635	0.41
602.97	0.42
603.305	0.45
603.641	0.43
603.976	0.44
604.311	0.41
604.646	0.43
604.981	0.45
605.316	0.43
605.651	0.41
605.986	0.37
606.32	0.38
606.655	0.37
606.99	0.36
607.324	0.38
607.659	0.41
607.993	0.4
608.328	0.36
608.662	0.39
608.997	0.41
609.331	0.41
609.665	0.42
610	0.41
610.334	0.4
610.668	0.43
611.002	0.44
611.336	0.41
611.67	0.39
612.004	0.41
612.338	0.45
612.672	0.47
613.005	0.44
613.339	0.42
613.673	0.36
614.006	0.35
614.34	0.39
614.674	0.38
615.007	0.38
615.341	0.37
615.674	0.38
616.007	0.4
616.341	0.4
616.674	0.39
617.007	0.36
617.34	0.4
617.673	0.45
618.006	0.47
618.339	0.38
618.672	0.35
619.005	0.37
619.338	0.4
619.671	0.48
620.003	0.47
620.336	0.42
620.669	0.38
621.001	0.39
621.334	0.41
621.666	0.39
621.999	0.39
622.331	0.45
622.663	0.4
622.996	0.37
623.328	0.4
623.66	0.4
623.992	0.4
624.324	0.39
624.656	0.42
624.988	0.46
625.32	0.44
625.652	0.37
625.984	0.34
626.316	0.36
626.647	0.38
626.979	0.44
627.311	0.45
627.642	0.43
627.974	0.38
628.305	0.38
628.637	0.39
628.968	0.43
629.299	0.42
629.631	0.36
629.962	0.36
630.293	0.4
630.624	0.36
630.955	0.37
631.286	0.37
631.617	0.39
631.948	0.4
632.279	0.4
632.61	0.39
632.941	0.43
633.271	0.38
633.602	0.42
633.932	0.44
634.263	0.49
634.594	0.46
634.924	0.42
635.254	0.4
635.585	0.33
635.915	0.42
636.245	0.39
636.576	0.41
636.906	0.43
637.236	0.36
637.566	0.38
637.896	0.38
638.226	0.43
638.556	0.41
638.886	0.39
639.215	0.4
639.545	0.45
639.875	0.39
640.204	0.36
640.534	0.32
640.864	0.43
641.193	0.43
641.522	0.44
641.852	0.37
642.181	0.4
642.511	0.36
642.84	0.42
643.169	0.41
643.498	0.34
643.827	0.35
644.156	0.4
644.485	0.4
644.814	0.44
645.143	0.37
645.472	0.39
645.801	0.43
646.129	0.53
646.458	0.53
646.787	0.48
647.115	0.46
647.444	0.43
647.772	0.37
648.101	0.36
648.429	0.33
648.757	0.38
649.085	0.44
649.414	0.38
649.742	0.4
650.07	0.32
650.398	0.45
650.726	0.42
651.054	0.43
651.382	0.38
651.71	0.36
652.038	0.34
652.365	0.35
652.693	0.22
653.021	0.23
653.348	0.47
653.676	0.66
654.003	0.65
654.331	0.51
654.658	0.25
654.985	0.1
655.313	0.08
655.64	0.13
655.967	0.26
656.294	0.3
656.621	0.3
656.948	0.29
657.275	0.29
657.602	0.32
657.929	0.35
658.256	0.39
658.583	0.44
658.909	0.37
659.236	0.47
659.563	0.44
659.889	0.4
660.216	0.39
660.542	0.42
660.869	0.34
661.195	0.49
661.521	0.5
661.847	0.51
662.174	0.51
662.5	0.4
662.826	0.41
663.152	0.42
663.478	0.51
663.804	0.49
664.13	0.41
664.456	0.41
664.781	0.36
665.107	0.36
665.433	0.38
665.758	0.35
666.084	0.4
666.41	0.43
666.735	0.42
667.06	0.47
667.386	0.48
667.711	0.41
668.036	0.42
668.362	0.43
668.687	0.34
669.012	0.42
669.337	0.46
669.662	0.45
669.987	0.51
670.312	0.51
670.637	0.42
670.961	0.4
671.286	0.38
671.611	0.38
671.935	0.32
672.26	0.37
672.585	0.39
672.909	0.4
673.233	0.37
673.558	0.41
673.882	0.47
674.206	0.4
674.531	0.48
674.855	0.44
675.179	0.4
675.503	0.38
675.827	0.49
676.151	0.45
676.475	0.38
676.799	0.42
677.123	0.45
677.446	0.46
677.77	0.47
678.094	0.41
678.417	0.38
678.741	0.32
679.064	0.46
679.388	0.47
679.711	0.55
680.034	0.46
680.358	0.41
680.681	0.4
681.004	0.31
681.327	0.37
681.65	0.47
681.973	0.48
682.296	0.5
682.619	0.49
682.942	0.43
683.265	0.48
683.587	0.5
683.91	0.42
684.233	0.34
684.555	0.31
684.878	0.37
685.2	0.38
685.523	0.44
685.845	0.43
686.168	0.42
686.49	0.41
686.812	0.39
687.134	0.48
687.456	0.47
687.778	0.55
688.1	0.42
688.422	0.38
688.744	0.41
689.066	0.44
689.388	0.5
689.71	0.58
690.031	0.42
690.353	0.36
690.675	0.33
690.996	0.43
691.318	0.48
691.639	0.44
691.96	0.35
692.282	0.38
692.603	0.36
692.924	0.42
693.245	0.5
693.566	0.5
693.887	0.4
694.208	0.31
694.529	0.42
694.85	0.55
695.171	0.55
695.492	0.55
695.813	0.47
696.133	0.34
696.454	0.31
696.775	0.35
697.095	0.36
697.416	0.38
697.736	0.31
698.056	0.43
698.377	0.41
698.697	0.36
699.017	0.38
699.337	0.33
699.657	0.37
699.977	0.36
700.297	0.54
700.617	0.54
700.937	0.6
701.257	0.4
701.577	0.37
701.897	0.26
702.216	0.37
702.536	0.47
702.855	0.4
703.175	0.33
703.494	0.43
703.814	0.29
704.133	0.4
704.452	0.48
704.772	0.53
705.091	0.56
705.41	0.49
705.729	0.5
706.048	0.4
706.367	0.4
706.686	0.37
707.005	0.38
707.324	0.36
707.642	0.33
707.961	0.36
708.28	0.47
708.598	0.56
708.917	0.54
709.235	0.37
709.554	0.35
709.872	0.38
710.191	0.43
710.509	0.47
710.827	0.53
711.145	0.51
711.463	0.52
711.781	0.48
712.099	0.4
712.417	0.45
712.735	0.44
713.053	0.38
713.371	0.43
713.689	0.43
714.006	0.35
714.324	0.27
714.642	0.39
714.959	0.49
715.277	0.43
715.594	0.51
715.911	0.42
716.229	0.47
716.546	0.46
716.863	0.48
717.18	0.46
717.497	0.35
717.814	0.38
718.131	0.32
718.448	0.34
718.765	0.38
719.082	0.48
719.399	0.45
719.715	0.4
720.032	0.43
720.349	0.46
720.665	0.41
720.982	0.38
721.298	0.48
721.615	0.48
721.931	0.4
722.247	0.47
722.563	0.44
722.88	0.42
723.196	0.54
723.512	0.52
723.828	0.49
724.144	0.42
724.46	0.38
724.775	0.46
725.091	0.5
725.407	0.41
725.723	0.55
726.038	0.57
726.354	0.5
726.669	0.47
726.985	0.36
727.3	0.46
727.616	0.44
727.931	0.4
728.246	0.4
728.561	0.46
728.876	0.53
729.192	0.58
729.507	0.52
729.822	0.44
730.136	0.36
730.451	0.39
730.766	0.44
731.081	0.41
731.396	0.37
731.71	0.42
732.025	0.43
732.339	0.46
732.654	0.44
732.968	0.44
733.283	0.4
733.597	0.47
733.911	0.45
734.225	0.42
734.54	0.37
734.854	0.47
735.168	0.43
735.482	0.43
735.796	0.42
736.11	0.32
736.423	0.36
736.737	0.4
737.051	0.49
737.364	0.54
737.678	0.45
737.992	0.38
738.305	0.31
738.619	0.29
738.932	0.24
739.245	0.29
739.559	0.37
739.872	0.35
740.185	0.63
740.498	0.59
740.811	0.57
741.124	0.49
741.437	0.4
741.75	0.29
742.063	0.32
742.376	0.45
742.688	0.49
743.001	0.42
743.314	0.42
743.626	0.58
743.939	0.61
744.251	0.55
744.564	0.41
744.876	0.31
745.188	0.57
745.5	0.49
745.813	0.47
746.125	0.4
746.437	0.38
746.749	0.58
747.061	0.43
747.373	0.53
747.684	0.5
747.996	0.46
748.308	0.56
748.62	0.41
748.931	0.34
749.243	0.37
749.554	0.5
749.866	0.54
750.177	0.42
750.489	0.58
750.8	0.36
751.111	0.42
751.422	0.43
751.733	0.71
752.044	0.47
752.355	0.38
752.666	0.28
752.977	0.35
753.288	0.48
753.599	0.47
753.91	0.4
754.22	0.48
754.531	0.48
754.842	0.46
755.152	0.5
755.463	0.64
755.773	0.52
756.083	0.41
756.394	0.38
756.704	0.28
757.014	0.25
757.324	0.35
757.634	0.3
757.944	0.45
758.254	0.39
758.564	0.42
758.874	0.47
759.184	0.49
759.493	0.41
759.803	0.34
760.113	0.32
760.422	0.33
760.732	0.34
761.041	0.35
761.351	0.38
761.66	0.48
761.969	0.47
762.279	0.4
762.588	0.43
762.897	0.47
763.206	0.46
763.515	0.38
763.824	0.36
764.133	0.3
764.442	0.35
764.75	0.19
765.059	0.36
765.368	0.33
765.676	0.29
765.985	0.47
766.293	0.52
766.602	0.5
766.91	0.45
767.219	0.41
767.527	0.4
767.835	0.28
768.143	0.28
768.451	0.31
768.76	0.32
769.068	0.34
769.375	0.5
769.683	0.27
769.991	0.32
770.299	0.27
770.607	0.29
770.914	0.35
771.222	0.35
771.53	0.36
771.837	0.43
772.144	0.38
772.452	0.21
772.759	0.24
773.066	0.21
773.374	0.32
773.681	0.13
773.988	0.46
774.295	0.36
774.602	0.19
774.909	0.54
775.216	0.37
775.523	0.64
775.829	0.42
776.136	0.23
776.443	0.3
776.749	0.43
777.056	1.01
777.362	0.5
777.669	0.37
777.975	0.26
778.281	0.45
778.588	0.2
778.894	0.49
779.2	0.59
779.506	0.41
779.812	0.62
780.118	0.43
780.424	0.29
780.73	0.24
781.036	0.32
781.341	0.12
781.647	0.35
781.953	0.33
782.258	0.23
782.564	0.26
782.869	0.26
783.175	0.19
783.48	0.18
783.785	0.28
784.091	0.46
784.396	0.32
784.701	0.46
785.006	0.61
785.311	0.28
785.616	0.22
785.921	0.31
786.226	0.15
786.53	0.3
786.835	0.34
787.14	0.22
787.444	0.22
787.749	0.15
788.053	-0.01
788.358	0.23
788.662	0.36
788.967	0.11
789.271	0.3
789.575	0.23
789.879	0.14
790.183	0.2
790.487	0.03
790.791	0.05
791.095	0.18
791.399	0.19
791.703	0.26
792.007	0.22
792.31	0.27
792.614	0.24
792.918	0.29
793.221	0.18
793.525	0.11
793.828	0.18
794.131	0.17
794.435	-0.01
794.738	-0.13
795.041	-0.02
795.344	0.41
795.647	-0.22
795.95	0.17
796.253	0.27
796.556	0.07
796.859	0.07
797.162	0.31
797.465	0.05
797.767	-0.08
798.07	0.21
798.372	0.15
798.675	0.36
798.977	0.19
799.28	0.29
799.582	0.23
799.884	-0
800.186	-0
800.489	0.07
800.791	-0
801.093	-0.8
801.395	0.08
801.697	-0.04
801.999	-0.23
802.3	0.28
802.602	0.12
802.904	0.2
803.205	0.14
803.507	0.09
803.809	-0.63
804.11	0.31
804.411	0.14
804.713	0.56
805.014	0.13
805.315	0.34
805.616	0.41
805.918	0.21
806.219	-0.08
806.52	0.53
806.821	0.23
807.121	1.94
807.422	0.28
807.723	-0
808.024	0.3
808.324	-0.35
808.625	-0.71
808.926	-0.05
809.226	-0.06
809.526	-0
809.827	-0.61
810.127	0.87
810.427	-0.04
810.728	-0.71
811.028	-0
811.328	-0.5
811.628	0.1
811.928	0.04
812.228	-0.23
812.527	-0.4
812.827	0.35
813.127	0.04
813.427	-0
813.726	-0.37
814.026	0.03
814.325	0.33
814.625	-0.22
814.924	-0.79
815.223	0.15
815.523	-0.88
815.822	-1.11
816.121	-0
816.42	0.13
816.719	0.24
817.018	-0
817.317	1.36
817.616	0.71
817.915	0.67
818.214	-0
818.512	0.09
818.811	0.03
819.109	-0
819.408	0.35
819.706	-0.42
820.005	0.49
820.303	0.3
820.601	0.32
820.9	-0.08
821.198	-0.26
821.496	0.4
821.794	-1.55
822.092	-0.01
822.39	1.81
822.688	-0.02
822.985	-0.77
823.283	-0
823.581	-0.17
823.879	0.11
824.176	0.1
824.474	0.08
824.771	-0
825.068	0.17
825.366	-0.07
825.663	-0
825.96	-0.25
826.257	0.09
826.555	0.21
826.852	-0
827.149	0.13
827.446	0.25
827.742	0.2
828.039	0.29
828.336	0.5
828.633	-0.02
828.929	-0.06
829.226	-0.24
829.522	-0
829.819	0.13
830.115	0.1
830.412	0.27
830.708	-0
831.004	0.38
831.3	0.31
831.596	0.18
831.892	-0.03
832.188	0.41
832.484	0.36
832.78	-0
833.076	-0.06
833.372	0.83
833.668	-0
833.963	0.15
834.259	-0
834.554	0.72
834.85	0.42
835.145	-0.08
835.441	0.03
835.736	-0.02
836.031	0.16
836.326	-0.92
836.621	0.14
836.916	0.39
837.211	0.02
837.506	-1.03
837.801	-0.04
838.096	-0.2
838.391	0.15
838.685	-0
838.98	0.39
839.275	-1.29
839.569	-0.3
839.864	0.37
840.158	-0
840.452	0.15
840.747	0.07
841.041	0.14
841.335	0.19
841.629	0.23
841.923	-0
842.217	0.01
842.511	-0.16
842.805	-0
843.099	-0.12
843.393	0.07
843.686	-0.7
843.98	0.62
844.273	-0
844.567	-0
844.86	-0
845.154	0.17
845.447	-0
845.74	0.48
846.034	-0.04
846.327	0.14
846.62	0.58
846.913	-0
847.206	0.2
847.499	0.31
847.792	0.29
848.084	-0.15
848.377	-0.09
848.67	0.52
848.962	0.07
849.255	-0
849.548	0.44
849.84	-0.06
850.132	-0
850.425	-0
850.717	-0
851.009	0.38
851.301	0.76
851.593	-0
851.885	-0
852.177	-0.16
852.469	0.22
852.761	-0.95
853.053	1.02
853.345	0.1
853.636	-0
853.928	-0
854.219	-0
854.511	-0.02
854.802	-0
855.094	1.06
855.385	0.57
855.676	-0.33
855.967	0.49
856.259	0.06
856.55	-0.09
856.841	0.12
857.132	0.29
857.423	-0.37
857.713	-0.33
858.004	0.26
858.295	0.14
858.585	-0
858.876	1.71
859.167	-0.24
859.457	-0.44
859.747	0.35
860.038	-0.82
860.328	0.11
860.618	0.09
860.909	-0.75
861.199	0.11
861.489	0.75
861.779	-0.24
862.069	-0
862.358	-0.08
862.648	0.07
862.938	0.27
863.228	1.04
863.517	0.6
863.807	0.08
864.096	-0
864.386	-0
864.675	-0.07
864.965	0.04
865.254	-0
865.543	0.38
865.832	0.05
866.121	0.38
866.41	-0
866.699	-0.16
866.988	-0
867.277	-0.02
867.566	0.22
867.855	-0
868.143	-0.52
868.432	0.18
868.72	0.33
869.009	0.29
869.297	-0
869.586	-0.03
869.874	-0.04
870.162	0.38
870.45	-0.27
870.739	-0.67
871.027	-0.68
871.315	-0
871.603	-0
871.89	-0
872.178	0.74
872.466	1
872.754	-1.05
873.041	0.25
873.329	0.04
873.616	0.7
873.904	0.94
874.191	-0
874.479	-0
874.766	-0
875.053	-0
